cue_stim_type,cue_orientation,cue_position,cue_time,cue_type,stim_position,expected_response,trials.thisRepN,trials.thisTrialN,trials.thisN,trials.thisIndex,exo_trials.thisRepN,exo_trials.thisTrialN,exo_trials.thisN,exo_trials.thisIndex,intro_text.started,intro_text.stopped,intro_resp.keys,intro_resp.rt,intro_resp.started,intro_resp.stopped,key_resp.keys,key_resp.rt,key_resp.started,key_resp.stopped,endo_right.started,endo_right.stopped,endo_left.started,endo_left.stopped,fixation_cross.started,fixation_cross.stopped,endo_cue.started,endo_cue.stopped,endo_stimulus.started,endo_stimulus.stopped,key_resp_2.keys,key_resp_2.started,key_resp_2.stopped,exo_right.started,exo_right.stopped,exo_left.started,exo_left.stopped,fixation.started,fixation.stopped,exo_cue.started,exo_cue.stopped,exo_stimulus.started,exo_stimulus.stopped,key_resp_2.rt,outro_text.started,outro_text.stopped,participant,date,expName,psychopyVersion,frameRate,
,,,,,,,,,,,,,,,47.74215700000059,None,space,84.22543310001493,47.74215700000059,None,,,,,,,,,,,,,,,,,,,,,,,,,,,,,,,001,2021_Dec_01_1404,cueing,2021.2.3,None,
endo,-90,"(-0.035, 0)",0.5645407691009291,correct,"(-0.4, 0)",a,0,0,0,5,,,,,,,,,,,a,0.5507642000447959,134.56385279993992,None,132.01720329991076,None,132.01720329991076,None,132.01720329991076,None,134.06672299990896,134.81283469998743,134.56385279993992,134.66180989996064,,,,,,,,,,,,,,,,,001,2021_Dec_01_1404,cueing,2021.2.3,None,
endo,90,"(0.035, 0)",0.8970076051360286,correct,"(0.4, 0)",l,0,1,1,20,,,,,,,,,,,l,0.47752469999250025,138.01839959993958,None,135.1353691999102,None,135.1353691999102,None,135.1353691999102,None,137.5097901999252,138.25742869998794,138.01839959993958,138.11647869995795,,,,,,,,,,,,,,,,,001,2021_Dec_01_1404,cueing,2021.2.3,None,
endo,-90,"(-0.035, 0)",0.04779793183180647,incorrect,"(0.4, 0)",l,0,2,2,33,,,,,,,,,,,l,0.36269700003322214,140.5394523999421,None,138.51561419991776,None,138.51561419991776,None,138.51561419991776,None,140.04250719991978,140.79651319992263,140.5394523999421,140.64858559996355,,,,,,,,,,,,,,,,,001,2021_Dec_01_1404,cueing,2021.2.3,None,
endo,90,"(0.035, 0)",0.9478101236950716,correct,"(0.4, 0)",l,0,3,3,26,,,,,,,,,,,l,0.584888800047338,143.8557804999873,None,140.92196389997844,None,140.92196389997844,None,140.92196389997844,None,143.345525899902,144.0929571999004,143.8557804999873,143.95234059996437,,,,,,,,,,,,,,,,,001,2021_Dec_01_1404,cueing,2021.2.3,None,
endo,90,"(0.035, 0)",0.9010739803891251,incorrect,"(-0.4, 0)",a,0,4,4,11,,,,,,,,,,,a,0.4003096000524238,147.3400457999669,None,144.46290469996165,None,144.46290469996165,None,144.46290469996165,None,146.84226059995126,147.59052839991637,147.3400457999669,147.43666029989254,,,,,,,,,,,,,,,,,001,2021_Dec_01_1404,cueing,2021.2.3,None,
endo,90,"(0.035, 0)",0.6144709735635417,correct,"(0.4, 0)",l,0,5,5,29,,,,,,,,,,,l,0.33875829994212836,150.34660419996362,None,147.7580173999304,None,147.7580173999304,None,147.7580173999304,None,149.84825739997905,150.60067779989913,150.34660419996362,150.4431251999922,,,,,,,,,,,,,,,,,001,2021_Dec_01_1404,cueing,2021.2.3,None,
endo,-90,"(-0.035, 0)",0.9206860483593494,incorrect,"(0.4, 0)",l,0,6,6,38,,,,,,,,,,,l,0.38921639998443425,153.6059884999413,None,150.70110299997032,None,150.70110299997032,None,150.70110299997032,None,153.09716209990438,153.84340729995165,153.6059884999413,153.7040379999671,,,,,,,,,,,,,,,,,001,2021_Dec_01_1404,cueing,2021.2.3,None,
endo,-90,"(-0.035, 0)",0.23391027043498136,correct,"(-0.4, 0)",a,0,7,7,8,,,,,,,,,,,a,0.3368475999450311,156.2186839999631,None,154.0118938999949,None,154.0118938999949,None,154.0118938999949,None,155.72172109992243,156.47582189994864,156.2186839999631,156.32149289990775,,,,,,,,,,,,,,,,,001,2021_Dec_01_1404,cueing,2021.2.3,None,
endo,-90,"(-0.035, 0)",0.7669666969931148,correct,"(-0.4, 0)",a,0,8,8,9,,,,,,,,,,,a,0.3429988999851048,159.3271984999301,None,156.58131209993735,None,156.58131209993735,None,156.58131209993735,None,158.83052189997397,159.57558760000393,159.3271984999301,159.4242580999853,,,,,,,,,,,,,,,,,001,2021_Dec_01_1404,cueing,2021.2.3,None,
endo,90,"(0.035, 0)",0.4499901342346745,incorrect,"(-0.4, 0)",a,0,9,9,12,,,,,,,,,,,a,0.3672094000503421,162.11482369992882,None,159.69154369994067,None,159.69154369994067,None,159.69154369994067,None,161.61776979989372,162.37339659989811,162.11482369992882,162.21219569991808,,,,,,,,,,,,,,,,,001,2021_Dec_01_1404,cueing,2021.2.3,None,
endo,-90,"(-0.035, 0)",0.37307711698805524,incorrect,"(0.4, 0)",l,0,10,10,37,,,,,,,,,,,l,0.2899109999416396,164.86166169994976,None,162.50441169994883,None,162.50441169994883,None,162.50441169994883,None,164.35162679990754,165.09940809989348,164.86166169994976,164.95922839990817,,,,,,,,,,,,,,,,,001,2021_Dec_01_1404,cueing,2021.2.3,None,
endo,-90,"(-0.035, 0)",0.5922941594138551,correct,"(-0.4, 0)",a,0,11,11,4,,,,,,,,,,,a,0.33429020002949983,167.75221379997674,None,165.1783319999231,None,165.1783319999231,None,165.1783319999231,None,167.25399249990005,168.00606249994598,167.75221379997674,167.8500819999026,,,,,,,,,,,,,,,,,001,2021_Dec_01_1404,cueing,2021.2.3,None,
endo,-90,"(-0.035, 0)",0.07901741602572421,incorrect,"(0.4, 0)",l,0,12,12,35,,,,,,,,,,,l,0.35182989994063973,170.16909489990212,None,168.10951799992472,None,168.10951799992472,None,168.10951799992472,None,169.67212789994664,170.41801289992873,170.16909489990212,170.27832439995836,,,,,,,,,,,,,,,,,001,2021_Dec_01_1404,cueing,2021.2.3,None,
endo,90,"(0.035, 0)",0.3939797644424977,incorrect,"(-0.4, 0)",a,0,13,13,15,,,,,,,,,,,a,0.2978324999567121,172.91566109994892,None,170.54557729989756,None,170.54557729989756,None,170.54557729989756,None,172.41748399997596,173.16721230000257,172.91566109994892,173.01429259998258,,,,,,,,,,,,,,,,,001,2021_Dec_01_1404,cueing,2021.2.3,None,
endo,90,"(0.035, 0)",0.38360493617076563,incorrect,"(-0.4, 0)",a,0,14,14,13,,,,,,,,,,,a,0.3996663000434637,175.59358639991842,None,173.23727589996997,None,173.23727589996997,None,173.23727589996997,None,175.09625649999361,175.84200699999928,175.59358639991842,175.70331419992726,,,,,,,,,,,,,,,,,001,2021_Dec_01_1404,cueing,2021.2.3,None,
endo,90,"(0.035, 0)",0.2379684415492357,incorrect,"(-0.4, 0)",a,0,15,15,14,,,,,,,,,,,a,0.4811797000002116,178.23582079994958,None,176.01583809999283,None,176.01583809999283,None,176.01583809999283,None,177.72738699999172,178.47379239997827,178.23582079994958,178.33419939992018,,,,,,,,,,,,,,,,,001,2021_Dec_01_1404,cueing,2021.2.3,None,
endo,-90,"(-0.035, 0)",0.9828471876315273,incorrect,"(0.4, 0)",l,0,16,16,30,,,,,,,,,,,l,0.4363267000298947,181.69012409995776,None,178.73350429988932,None,178.73350429988932,None,178.73350429988932,None,181.19313439994585,181.94479029998183,181.69012409995776,181.78775739995763,,,,,,,,,,,,,,,,,001,2021_Dec_01_1404,cueing,2021.2.3,None,
endo,-90,"(-0.035, 0)",0.7043933979083875,incorrect,"(0.4, 0)",l,0,17,17,39,,,,,,,,,,,l,0.46609470003750175,184.8237602999434,None,182.14482839999255,None,182.14482839999255,None,182.14482839999255,None,184.32628919999115,185.0732859999407,184.8237602999434,184.92229169991333,,,,,,,,,,,,,,,,,001,2021_Dec_01_1404,cueing,2021.2.3,None,
endo,-90,"(-0.035, 0)",0.7387684035985251,correct,"(-0.4, 0)",a,0,18,18,1,,,,,,,,,,,a,0.37574960000347346,188.03661249997094,None,185.3113276999211,None,185.3113276999211,None,185.3113276999211,None,187.53233550000004,188.28595069993753,188.03661249997094,188.13338959997054,,,,,,,,,,,,,,,,,001,2021_Dec_01_1404,cueing,2021.2.3,None,
endo,90,"(0.035, 0)",0.7025707610448116,correct,"(0.4, 0)",l,0,19,19,28,,,,,,,,,,,l,0.4267060999991372,191.1202151000034,None,188.43566109996755,None,188.43566109996755,None,188.43566109996755,None,190.61406429996714,191.37020469992422,191.1202151000034,191.21826349990442,,,,,,,,,,,,,,,,,001,2021_Dec_01_1404,cueing,2021.2.3,None,
endo,90,"(0.035, 0)",0.19704960639573776,incorrect,"(-0.4, 0)",a,0,20,20,16,,,,,,,,,,,a,0.33131529996171594,193.74499429995194,None,191.57606039999519,None,191.57606039999519,None,191.57606039999519,None,193.24743039999157,194.00557669997215,193.74499429995194,193.84901339991484,,,,,,,,,,,,,,,,,001,2021_Dec_01_1404,cueing,2021.2.3,None,
endo,90,"(0.035, 0)",0.9127004317251198,incorrect,"(-0.4, 0)",a,0,21,21,19,,,,,,,,,,,a,0.39069180004298687,196.9866918999469,None,194.09797449992038,None,194.09797449992038,None,194.09797449992038,None,196.4903178999666,197.23545899998862,196.9866918999469,197.09401639993303,,,,,,,,,,,,,,,,,001,2021_Dec_01_1404,cueing,2021.2.3,None,
endo,90,"(0.035, 0)",0.4283499593741631,correct,"(0.4, 0)",l,0,22,22,24,,,,,,,,,,,l,0.6307195000117645,199.80536099988967,None,197.39920749992598,None,197.39920749992598,None,197.39920749992598,None,199.30813919997308,200.0642807999393,199.80536099988967,199.90399669995531,,,,,,,,,,,,,,,,,001,2021_Dec_01_1404,cueing,2021.2.3,None,
endo,90,"(0.035, 0)",0.993881262689159,correct,"(0.4, 0)",l,0,23,23,27,,,,,,,,,,,l,0.3674568000715226,203.42910809989553,None,200.45905429997947,None,200.45905429997947,None,200.45905429997947,None,202.93211909988895,203.67789949988946,203.42910809989553,203.53475759993307,,,,,,,,,,,,,,,,,001,2021_Dec_01_1404,cueing,2021.2.3,None,
endo,-90,"(-0.035, 0)",0.2976392595268207,incorrect,"(0.4, 0)",l,0,24,24,31,,,,,,,,,,,l,0.43781619996298105,206.0911114999326,None,203.8145679999143,None,203.8145679999143,None,203.8145679999143,None,205.59263499989174,206.34180379996542,206.0911114999326,206.18989209993742,,,,,,,,,,,,,,,,,001,2021_Dec_01_1404,cueing,2021.2.3,None,
endo,90,"(0.035, 0)",0.39625884761736807,correct,"(0.4, 0)",l,0,25,25,23,,,,,,,,,,,l,0.5369169999612495,208.9261946999468,None,206.54761659994256,None,206.54761659994256,None,206.54761659994256,None,208.41813389991876,209.1627359999111,208.9261946999468,209.02400219999254,,,,,,,,,,,,,,,,,001,2021_Dec_01_1404,cueing,2021.2.3,None,
endo,90,"(0.035, 0)",0.6423195276025604,correct,"(0.4, 0)",l,0,26,26,21,,,,,,,,,,,l,0.41750710003543645,212.107733599958,None,209.48461399995722,None,209.48461399995722,None,209.48461399995722,None,211.59886199992616,212.34513619996142,212.107733599958,212.2086347999284,,,,,,,,,,,,,,,,,001,2021_Dec_01_1404,cueing,2021.2.3,None,
endo,-90,"(-0.035, 0)",0.02396326924047798,correct,"(-0.4, 0)",a,0,27,27,7,,,,,,,,,,,a,0.4345449000829831,214.5511586999055,None,212.55044579994865,None,212.55044579994865,None,212.55044579994865,None,214.05318009993061,214.80849189998116,214.5511586999055,214.65062929992564,,,,,,,,,,,,,,,,,001,2021_Dec_01_1404,cueing,2021.2.3,None,
endo,-90,"(-0.035, 0)",0.28340262260056537,correct,"(-0.4, 0)",a,0,28,28,3,,,,,,,,,,,a,0.43893159995786846,217.2722845999524,None,215.0042500999989,None,215.0042500999989,None,215.0042500999989,None,216.76246040000115,217.5074077999452,217.2722845999524,217.37197399989236,,,,,,,,,,,,,,,,,001,2021_Dec_01_1404,cueing,2021.2.3,None,
endo,-90,"(-0.035, 0)",0.7866571383694275,correct,"(-0.4, 0)",a,0,29,29,2,,,,,,,,,,,a,0.4271573999430984,220.49579369998537,None,217.73274079989642,None,217.73274079989642,None,217.73274079989642,None,219.99853569990955,220.75336749991402,220.49579369998537,220.59463680000044,,,,,,,,,,,,,,,,,001,2021_Dec_01_1404,cueing,2021.2.3,None,
endo,90,"(0.035, 0)",0.7311452878836484,correct,"(0.4, 0)",l,0,30,30,25,,,,,,,,,,,l,1.0296946000307798,223.65298619994428,None,220.9464578999905,None,220.9464578999905,None,220.9464578999905,None,223.163574499893,223.9108115999261,223.65298619994428,223.75073749991134,,,,,,,,,,,,,,,,,001,2021_Dec_01_1404,cueing,2021.2.3,None,
endo,-90,"(-0.035, 0)",0.29956714904652626,incorrect,"(0.4, 0)",l,0,31,31,36,,,,,,,,,,,a,1.3229201999492943,226.9870478999801,None,224.70789439999498,None,224.70789439999498,None,224.70789439999498,None,226.48320559994318,227.23040649993345,226.9870478999801,227.0864349999465,,,,,,,,,,,,,,,,,001,2021_Dec_01_1404,cueing,2021.2.3,None,
endo,90,"(0.035, 0)",0.6591262849764731,correct,"(0.4, 0)",l,0,32,32,22,,,,,,,,,,,l,0.5469652999890968,230.9684265999822,None,228.32760849990882,None,228.32760849990882,None,228.32760849990882,None,230.4711666998919,231.22533809999004,230.9684265999822,231.0682871999452,,,,,,,,,,,,,,,,,001,2021_Dec_01_1404,cueing,2021.2.3,None,
endo,-90,"(-0.035, 0)",0.7056869244497335,correct,"(-0.4, 0)",a,0,33,33,0,,,,,,,,,,,a,0.41370520007330924,234.22341729991604,None,231.53804939996917,None,231.53804939996917,None,231.53804939996917,None,233.72544719988946,234.47129209991544,234.22341729991604,234.32098269998096,,,,,,,,,,,,,,,,,001,2021_Dec_01_1404,cueing,2021.2.3,None,
endo,90,"(0.035, 0)",0.18359352140224616,incorrect,"(-0.4, 0)",a,0,34,34,18,,,,,,,,,,,a,0.4922161999857053,236.81704259989783,None,234.6588925999822,None,234.6588925999822,None,234.6588925999822,None,236.31942029995844,237.07419019995723,236.81704259989783,236.92008579999674,,,,,,,,,,,,,,,,,001,2021_Dec_01_1404,cueing,2021.2.3,None,
endo,90,"(0.035, 0)",0.3779252118559099,incorrect,"(-0.4, 0)",a,0,35,35,17,,,,,,,,,,,a,0.382337799994275,239.68949439993594,None,237.3324040999869,None,237.3324040999869,None,237.3324040999869,None,239.19206539995503,239.93938639992848,239.68949439993594,239.79251499997918,,,,,,,,,,,,,,,,,001,2021_Dec_01_1404,cueing,2021.2.3,None,
endo,-90,"(-0.035, 0)",0.42702221127828477,correct,"(-0.4, 0)",a,0,36,36,6,,,,,,,,,,,a,0.3664236000040546,242.50789509993047,None,240.09505879995413,None,240.09505879995413,None,240.09505879995413,None,241.99805639998522,242.75352029991336,242.50789509993047,242.6110538999783,,,,,,,,,,,,,,,,,001,2021_Dec_01_1404,cueing,2021.2.3,None,
endo,-90,"(-0.035, 0)",0.5469701378611879,incorrect,"(0.4, 0)",l,0,37,37,32,,,,,,,,,,,l,0.3807260999456048,245.4234906999627,None,242.8956993999891,None,242.8956993999891,None,242.8956993999891,None,244.92549549997784,245.6741421999177,245.4234906999627,245.5233137999894,,,,,,,,,,,,,,,,,001,2021_Dec_01_1404,cueing,2021.2.3,None,
endo,90,"(0.035, 0)",0.9706793863527535,incorrect,"(-0.4, 0)",a,0,38,38,10,,,,,,,,,,,a,0.6668809000402689,248.78047369990963,None,245.83202129998244,None,245.83202129998244,None,245.83202129998244,None,248.27784389990848,249.0338436999591,248.78047369990963,248.87829789996613,,,,,,,,,,,,,,,,,001,2021_Dec_01_1404,cueing,2021.2.3,None,
endo,-90,"(-0.035, 0)",0.7701712865549922,incorrect,"(0.4, 0)",l,0,39,39,34,,,,,,,,,,,l,0.38267169997561723,252.21725469990633,None,249.46868890000042,None,249.46868890000042,None,249.46868890000042,None,251.7190702999942,252.47432179993484,252.21725469990633,252.3195212999126,,,,,,,,,,,,,,,,,001,2021_Dec_01_1404,cueing,2021.2.3,None,
exo,,"(-0.4, 0)",0.5323305070662401,incorrect,"(0.4, 0)",l,,,,,0,0,0,35,,,,,,,,,,,,,,,,,,,,,None,254.80399269994814,None,252.69210909993853,259.6945341998944,252.69210909993853,259.6945341998944,252.69210909993853,259.6945341998944,254.707077799947,254.80399269994814,254.80399269994814,254.9107044999255,,,,001,2021_Dec_01_1404,cueing,2021.2.3,None,
exo,,"(-0.4, 0)",0.36271911781023525,correct,"(-0.4, 0)",a,,,,,0,1,1,3,,,,,,,,,,,,,,,,,,,,,a,263.7553247999167,261.81281419994775,261.81281419994775,None,261.81281419994775,None,261.81281419994775,None,263.6583230999531,263.7553247999167,263.7553247999167,263.8643535999581,3.3079819000558928,,,001,2021_Dec_01_1404,cueing,2021.2.3,None,
exo,,"(0.4, 0)",0.0325124900817807,correct,"(0.4, 0)",l,,,,,0,2,2,26,,,,,,,,,,,,,,,,,,,,,l,268.69485539989546,None,267.08258219994605,None,267.08258219994605,None,267.08258219994605,None,268.59208539989777,268.69485539989546,268.69485539989546,268.7941132999258,0.562585899955593,,,001,2021_Dec_01_1404,cueing,2021.2.3,None,
exo,,"(0.4, 0)",0.7952770235546287,correct,"(0.4, 0)",l,,,,,0,3,3,28,,,,,,,,,,,,,,,,,,,,,a,271.65221319999546,None,269.2773622999666,None,269.2773622999666,None,269.2773622999666,None,271.55597499990836,271.65221319999546,271.65221319999546,271.7468553999206,0.7350851000519469,,,001,2021_Dec_01_1404,cueing,2021.2.3,None,
exo,,"(0.4, 0)",0.2836317994317733,incorrect,"(-0.4, 0)",a,,,,,0,4,4,10,,,,,,,,,,,,,,,,,,,,,a,274.2762659,None,272.410125699942,None,272.410125699942,None,272.410125699942,None,274.16763899999205,274.2641224999679,274.2762659,274.3832946999464,0.5650972999865189,,,001,2021_Dec_01_1404,cueing,2021.2.3,None,
exo,,"(-0.4, 0)",0.8593638337304581,incorrect,"(0.4, 0)",l,,,,,0,5,5,39,,,,,,,,,,,,,,,,,,,,,l,277.2980219000019,None,274.8649440999143,None,274.8649440999143,None,274.8649440999143,None,277.19759379990865,277.2980219000019,277.2980219000019,277.3944672999205,0.5285935000283644,,,001,2021_Dec_01_1404,cueing,2021.2.3,None,
exo,,"(0.4, 0)",0.0021202459600094814,incorrect,"(-0.4, 0)",a,,,,,0,6,6,14,,,,,,,,,,,,,,,,,,,,,a,279.42907630000263,None,277.84674049995374,None,277.84674049995374,None,277.84674049995374,None,279.331243099994,279.42907630000263,279.42907630000263,279.5264234999195,0.499760500038974,,,001,2021_Dec_01_1404,cueing,2021.2.3,None,
exo,,"(0.4, 0)",0.6213500325446535,correct,"(0.4, 0)",l,,,,,0,7,7,24,,,,,,,,,,,,,,,,,,,,,None,282.1550620999187,None,279.9497413999634,286.94856039993465,279.9497413999634,286.94856039993465,279.9497413999634,286.94856039993465,282.0530183999799,282.1550620999187,282.1550620999187,282.25341369991656,,,,001,2021_Dec_01_1404,cueing,2021.2.3,None,
exo,,"(-0.4, 0)",0.1153605878572842,incorrect,"(0.4, 0)",l,,,,,0,8,8,31,,,,,,,,,,,,,,,,,,,,,l,290.8577571999049,289.16346859990153,289.16346859990153,None,289.16346859990153,None,289.16346859990153,None,290.76091660000384,290.8577571999049,290.8577571999049,290.9638167999219,0.8301855000900105,,,001,2021_Dec_01_1404,cueing,2021.2.3,None,
exo,,"(-0.4, 0)",0.49994137550299844,correct,"(-0.4, 0)",a,,,,,0,9,9,8,,,,,,,,,,,,,,,,,,,,,l,293.79364599997643,None,291.71231499989517,None,291.71231499989517,None,291.71231499989517,None,293.69103999994695,293.79364599997643,293.79364599997643,293.8910156999482,1.0607920999173075,,,001,2021_Dec_01_1404,cueing,2021.2.3,None,
exo,,"(-0.4, 0)",0.1564137278799309,correct,"(-0.4, 0)",a,,,,,0,10,10,1,,,,,,,,,,,,,,,,,,,,,l,296.6033972000005,None,294.8720941999927,None,294.8720941999927,None,294.8720941999927,None,296.5067588998936,296.6033972000005,296.6033972000005,296.69967159989756,1.0174448000034317,,,001,2021_Dec_01_1404,cueing,2021.2.3,None,
exo,,"(-0.4, 0)",0.5921052648072145,incorrect,"(0.4, 0)",l,,,,,0,11,11,34,,,,,,,,,,,,,,,,,,,,,l,299.8215568999294,None,297.6483196999179,None,297.6483196999179,None,297.6483196999179,None,299.7126750999596,299.8091716999188,299.8215568999294,299.918265699991,0.8719183000503108,,,001,2021_Dec_01_1404,cueing,2021.2.3,None,
exo,,"(0.4, 0)",0.843533813309906,incorrect,"(-0.4, 0)",a,,,,,0,12,12,15,,,,,,,,,,,,,,,,,,,,,a,303.1365934999194,None,300.71266459999606,None,300.71266459999606,None,300.71266459999606,None,303.0288037999999,303.124191199895,303.1365934999194,303.2353819999844,1.1261389999417588,,,001,2021_Dec_01_1404,cueing,2021.2.3,None,
exo,,"(-0.4, 0)",0.5762605474981782,correct,"(-0.4, 0)",a,,,,,0,13,13,2,,,,,,,,,,,,,,,,,,,,,None,306.43950809992384,None,304.2882823999971,311.28752369992435,304.2882823999971,311.28752369992435,304.2882823999971,311.28752369992435,306.3426749999635,306.43950809992384,306.43950809992384,306.5372598998947,,,,001,2021_Dec_01_1404,cueing,2021.2.3,None,
exo,,"(-0.4, 0)",0.37826961368195333,incorrect,"(0.4, 0)",l,,,,,0,14,14,38,,,,,,,,,,,,,,,,,,,,,l,315.39795039989986,313.44207389990333,313.44207389990333,None,313.44207389990333,None,313.44207389990333,None,315.2945039999904,315.39795039989986,315.39795039989986,315.4956501999404,0.6602625000523403,,,001,2021_Dec_01_1404,cueing,2021.2.3,None,
exo,,"(-0.4, 0)",0.987689543319433,incorrect,"(0.4, 0)",l,,,,,0,15,15,36,,,,,,,,,,,,,,,,,,,,,l,318.6451762999641,None,316.0765233999118,None,316.0765233999118,None,316.0765233999118,None,318.5391778999474,318.6451762999641,318.6451762999641,318.742670299951,0.6078719000797719,,,001,2021_Dec_01_1404,cueing,2021.2.3,None,
exo,,"(-0.4, 0)",0.6190691391152903,correct,"(-0.4, 0)",a,,,,,0,16,16,6,,,,,,,,,,,,,,,,,,,,,a,321.4643308999948,None,319.27071249997243,None,319.27071249997243,None,319.27071249997243,None,321.36634489998687,321.4643308999948,321.4643308999948,321.56212649994995,1.1207331999903545,,,001,2021_Dec_01_1404,cueing,2021.2.3,None,
exo,,"(0.4, 0)",0.6134322306232748,correct,"(0.4, 0)",l,,,,,0,17,17,20,,,,,,,,,,,,,,,,,,,,,l,324.80416759999935,None,322.6102504999144,None,322.6102504999144,None,322.6102504999144,None,324.7061186999781,324.80416759999935,324.80416759999935,324.90225619997364,0.4360030998941511,,,001,2021_Dec_01_1404,cueing,2021.2.3,None,
exo,,"(-0.4, 0)",0.24050347507599634,correct,"(-0.4, 0)",a,,,,,0,18,18,4,,,,,,,,,,,,,,,,,,,,,a,327.08755469997413,None,325.2648971999297,None,325.2648971999297,None,325.2648971999297,None,326.98547549999785,327.08755469997413,327.08755469997413,327.18424789991695,0.46396169997751713,,,001,2021_Dec_01_1404,cueing,2021.2.3,None,
exo,,"(0.4, 0)",0.28710372813133933,correct,"(0.4, 0)",l,,,,,0,19,19,23,,,,,,,,,,,,,,,,,,,,,l,329.4394417000003,None,327.56987099989783,None,327.56987099989783,None,327.56987099989783,None,329.3298464999534,329.42661939992104,329.4394417000003,329.53731729998253,0.3969665999757126,,,001,2021_Dec_01_1404,cueing,2021.2.3,None,
exo,,"(-0.4, 0)",0.04126128936196305,correct,"(-0.4, 0)",a,,,,,0,20,20,7,,,,,,,,,,,,,,,,,,,,,a,331.4836005999241,None,329.856800599955,None,329.856800599955,None,329.856800599955,None,331.3728443,331.4702021999983,331.4836005999241,331.5866326999385,1.1274821000406519,,,001,2021_Dec_01_1404,cueing,2021.2.3,None,
exo,,"(0.4, 0)",0.8129667345671767,incorrect,"(-0.4, 0)",a,,,,,0,21,21,16,,,,,,,,,,,,,,,,,,,,,a,335.0208131999243,None,332.6287439999869,None,332.6287439999869,None,332.6287439999869,None,334.9192618998932,335.0208131999243,335.0208131999243,335.11789339990355,0.5843697000527754,,,001,2021_Dec_01_1404,cueing,2021.2.3,None,
exo,,"(0.4, 0)",0.4433431966992393,incorrect,"(-0.4, 0)",a,,,,,0,22,22,18,,,,,,,,,,,,,,,,,,,,,a,337.65077309997287,None,335.62651259999257,None,335.62651259999257,None,335.62651259999257,None,337.54266149993055,337.638560899999,337.65077309997287,337.7485621999949,0.4849896999076009,,,001,2021_Dec_01_1404,cueing,2021.2.3,None,
exo,,"(-0.4, 0)",0.1204646432692501,correct,"(-0.4, 0)",a,,,,,0,23,23,5,,,,,,,,,,,,,,,,,,,,,a,339.8628144999966,None,338.1601365999086,None,338.1601365999086,None,338.1601365999086,None,339.7605569999432,339.8628144999966,339.8628144999966,339.9620113999117,0.5943244000663981,,,001,2021_Dec_01_1404,cueing,2021.2.3,None,
exo,,"(0.4, 0)",0.5423668062603715,incorrect,"(-0.4, 0)",a,,,,,0,24,24,11,,,,,,,,,,,,,,,,,,,,,a,342.5964238999877,None,340.4752843999304,None,340.4752843999304,None,340.4752843999304,None,342.49995839991607,342.5964238999877,342.5964238999877,342.69261539995205,0.5951535999774933,,,001,2021_Dec_01_1404,cueing,2021.2.3,None,
exo,,"(-0.4, 0)",0.45451080672945254,incorrect,"(0.4, 0)",l,,,,,0,25,25,33,,,,,,,,,,,,,,,,,,,,,l,345.2395595998969,None,343.208935399889,None,343.208935399889,None,343.208935399889,None,345.1364997999044,345.2395595998969,345.2395595998969,345.3376960000023,0.6680645999731496,,,001,2021_Dec_01_1404,cueing,2021.2.3,None,
exo,,"(0.4, 0)",0.2427756313014502,correct,"(0.4, 0)",l,,,,,0,26,26,25,,,,,,,,,,,,,,,,,,,,,l,347.7496363999089,None,345.9239852000028,None,345.9239852000028,None,345.9239852000028,None,347.65073199989274,347.7496363999089,347.7496363999089,347.8470835000044,0.5129147000843659,,,001,2021_Dec_01_1404,cueing,2021.2.3,None,
exo,,"(-0.4, 0)",0.9427788862349625,incorrect,"(0.4, 0)",l,,,,,0,27,27,37,,,,,,,,,,,,,,,,,,,,,a,350.81215729995165,None,348.2866604999872,None,348.2866604999872,None,348.2866604999872,None,350.7135026999749,350.81215729995165,350.81215729995165,350.9107377999462,0.4319183999905363,,,001,2021_Dec_01_1404,cueing,2021.2.3,None,
exo,,"(0.4, 0)",0.5428012121350249,incorrect,"(-0.4, 0)",a,,,,,0,28,28,19,,,,,,,,,,,,,,,,,,,,,a,353.39600139996037,None,351.26850139989983,None,351.26850139989983,None,351.26850139989983,None,353.2931161999004,353.39600139996037,353.39600139996037,353.4940577999223,0.5418946999125183,,,001,2021_Dec_01_1404,cueing,2021.2.3,None,
exo,,"(0.4, 0)",0.8504486269585174,incorrect,"(-0.4, 0)",a,,,,,0,29,29,13,,,,,,,,,,,,,,,,,,,,,a,356.40175729990005,None,353.96664219989907,None,353.96664219989907,None,353.96664219989907,None,356.2929464998888,356.38961729989387,356.40175729990005,356.51111599989235,0.48417710000649095,,,001,2021_Dec_01_1404,cueing,2021.2.3,None,
exo,,"(0.4, 0)",0.7938944825899228,correct,"(0.4, 0)",l,,,,,0,30,30,22,,,,,,,,,,,,,,,,,,,,,l,359.28161849989556,None,356.9049599999562,None,356.9049599999562,None,356.9049599999562,None,359.1720440998906,359.2687813999364,359.28161849989556,359.3780824999558,0.43868130003102124,,,001,2021_Dec_01_1404,cueing,2021.2.3,None,
exo,,"(-0.4, 0)",0.33228981667356505,correct,"(-0.4, 0)",a,,,,,0,31,31,0,,,,,,,,,,,,,,,,,,,,,a,361.65028780000284,None,359.7362595999148,None,359.7362595999148,None,359.7362595999148,None,361.55346539989114,361.65028780000284,361.65028780000284,361.75719819997903,0.5187846999615431,,,001,2021_Dec_01_1404,cueing,2021.2.3,None,
exo,,"(-0.4, 0)",0.32297157550068845,incorrect,"(0.4, 0)",l,,,,,0,32,32,32,,,,,,,,,,,,,,,,,,,,,l,364.0932868999662,None,362.19342939998023,None,362.19342939998023,None,362.19342939998023,None,363.99566329992376,364.0932868999662,364.0932868999662,364.1907590999035,1.2654019999317825,,,001,2021_Dec_01_1404,cueing,2021.2.3,None,
exo,,"(-0.4, 0)",0.004487989147306193,incorrect,"(0.4, 0)",l,,,,,0,33,33,30,,,,,,,,,,,,,,,,,,,,,l,366.9597314998973,None,365.37800729996525,None,365.37800729996525,None,365.37800729996525,None,366.8623810999561,366.9597314998973,366.9597314998973,367.05634919996373,0.565626300056465,,,001,2021_Dec_01_1404,cueing,2021.2.3,None,
exo,,"(0.4, 0)",0.641709836185558,incorrect,"(-0.4, 0)",a,,,,,0,34,34,12,,,,,,,,,,,,,,,,,,,,,None,369.77129689999856,None,367.5537234999938,374.55552459997125,367.5537234999938,374.55552459997125,367.5537234999938,374.55552459997125,369.6742807999253,369.77129689999856,369.77129689999856,369.88046829996165,,,,001,2021_Dec_01_1404,cueing,2021.2.3,None,
exo,,"(0.4, 0)",0.42042298933524336,correct,"(0.4, 0)",l,,,,,0,35,35,21,,,,,,,,,,,,,,,,,,,,,a,378.7773905999493,376.77382129989564,376.77382129989564,None,376.77382129989564,None,376.77382129989564,None,378.6743964999914,378.7773905999493,378.7773905999493,378.87639379990287,0.5453768000006676,,,001,2021_Dec_01_1404,cueing,2021.2.3,None,
exo,,"(0.4, 0)",0.09319469313166973,incorrect,"(-0.4, 0)",a,,,,,0,36,36,17,,,,,,,,,,,,,,,,,,,,,a,381.00766359991394,None,379.33757659990806,None,379.33757659990806,None,379.33757659990806,None,380.9107797999168,381.00766359991394,381.00766359991394,381.11761529999785,0.8899325999664143,,,001,2021_Dec_01_1404,cueing,2021.2.3,None,
exo,,"(-0.4, 0)",0.27238578623149223,correct,"(-0.4, 0)",a,,,,,0,37,37,9,,,,,,,,,,,,,,,,,,,,,a,383.76655859989114,None,381.9171304999618,None,381.9171304999618,None,381.9171304999618,None,383.66827209992334,383.76655859989114,383.76655859989114,383.8640816999832,0.6648779000388458,,,001,2021_Dec_01_1404,cueing,2021.2.3,None,
exo,,"(0.4, 0)",0.5147733584100419,correct,"(0.4, 0)",l,,,,,0,38,38,29,,,,,,,,,,,,,,,,,,,,,l,386.54688629996963,None,384.4553126998944,None,384.4553126998944,None,384.4553126998944,None,386.4504747999599,386.54688629996963,386.54688629996963,386.6564150999766,0.6427580999443308,,,001,2021_Dec_01_1404,cueing,2021.2.3,None,
exo,,"(0.4, 0)",0.7386611339705057,correct,"(0.4, 0)",l,,,,,0,39,39,27,,,,,,,,,,,,,,,,,,,,,l,389.5229298999766,None,387.2075520999497,None,387.2075520999497,None,387.2075520999497,None,389.42226029990707,389.5229298999766,389.5229298999766,389.63222529995255,0.5565121000399813,,,001,2021_Dec_01_1404,cueing,2021.2.3,None,
,,,,,,,,,,,,,,,,,,,,,,,,,,,,,,,,,,,,,,,,,,,,,,,,,390.19331699993927,None,,,,,,
