cue_stim_type,cue_orientation,cue_position,cue_time,cue_type,stim_position,expected_response,trials.thisRepN,trials.thisTrialN,trials.thisN,trials.thisIndex,exo_trials.thisRepN,exo_trials.thisTrialN,exo_trials.thisN,exo_trials.thisIndex,intro_text.started,intro_text.stopped,intro_resp.keys,intro_resp.rt,intro_resp.started,intro_resp.stopped,key_resp.keys,key_resp.rt,key_resp.started,key_resp.stopped,endo_right.started,endo_right.stopped,endo_left.started,endo_left.stopped,fixation_cross.started,fixation_cross.stopped,endo_cue.started,endo_cue.stopped,endo_stimulus.started,endo_stimulus.stopped,key_resp_2.keys,key_resp_2.rt,key_resp_2.started,key_resp_2.stopped,exo_right.started,exo_right.stopped,exo_left.started,exo_left.stopped,fixation.started,fixation.stopped,exo_cue.started,exo_cue.stopped,exo_stimulus.started,exo_stimulus.stopped,outro_text.started,outro_text.stopped,participant,date,expName,psychopyVersion,frameRate,
,,,,,,,,,,,,,,,24.895923000061885,None,space,79.88834439998027,24.895923000061885,None,,,,,,,,,,,,,,,,,,,,,,,,,,,,,,,002,2021_Dec_01_1410,cueing,2021.2.3,None,
endo,90,"(0.035, 0)",0.993881262689159,correct,"(0.4, 0)",l,0,0,0,27,,,,,,,,,,,l,2.1704120999202132,107.7899246000452,None,104.82339360006154,None,104.82339360006154,None,104.82339360006154,None,107.2926230999874,108.04752559994813,107.7899246000452,107.88993359997403,,,,,,,,,,,,,,,,,002,2021_Dec_01_1410,cueing,2021.2.3,None,
endo,90,"(0.035, 0)",0.9706793863527535,incorrect,"(-0.4, 0)",a,0,1,1,10,,,,,,,,,,,a,3.353042699978687,112.93575740000233,None,109.98160179995466,None,109.98160179995466,None,109.98160179995466,None,112.43795199994929,113.18713059998117,112.93575740000233,113.03345640003681,,,,,,,,,,,,,,,,,002,2021_Dec_01_1410,cueing,2021.2.3,None,
endo,90,"(0.035, 0)",0.6144709735635417,correct,"(0.4, 0)",l,0,2,2,29,,,,,,,,,,,l,0.6139297999907285,118.90531930001453,None,116.31139849999454,None,116.31139849999454,None,116.31139849999454,None,118.40757949999534,119.16003320005257,118.90531930001453,119.00441599998157,,,,,,,,,,,,,,,,,002,2021_Dec_01_1410,cueing,2021.2.3,None,
endo,90,"(0.035, 0)",0.3779252118559099,incorrect,"(-0.4, 0)",a,0,3,3,17,,,,,,,,,,,None,,121.9069174999604,None,119.54170299996622,126.54678089998197,119.54170299996622,126.54678089998197,119.54170299996622,126.54678089998197,121.39545279997401,122.14185300003737,121.9069174999604,122.01034519996028,,,,,,,,,,,,,,,,,002,2021_Dec_01_1410,cueing,2021.2.3,None,
endo,90,"(0.035, 0)",0.7311452878836484,correct,"(0.4, 0)",l,0,4,4,25,,,,,,,,,,,l,0.5537748999195173,131.6141074000625,128.91127619997133,128.91127619997133,None,128.91127619997133,None,128.91127619997133,None,131.11653080000542,131.8689281999832,131.6141074000625,131.7111317999661,,,,,,,,,,,,,,,,,002,2021_Dec_01_1410,cueing,2021.2.3,None,
endo,-90,"(-0.035, 0)",0.07901741602572421,incorrect,"(0.4, 0)",l,0,5,5,35,,,,,,,,,,,None,,134.25038199999835,None,132.19095209997613,139.18460649996996,132.19095209997613,139.18460649996996,132.19095209997613,139.18460649996996,133.753076300025,134.50411390000954,134.25038199999835,134.35019519994967,,,,,,,,,,,,,,,,,002,2021_Dec_01_1410,cueing,2021.2.3,None,
endo,90,"(0.035, 0)",0.4499901342346745,incorrect,"(-0.4, 0)",a,0,6,6,12,,,,,,,,,,,a,4.626430099946447,143.6811315000523,141.25763510004617,141.25763510004617,148.25522309995722,141.25763510004617,148.25522309995722,141.25763510004617,148.25522309995722,143.18291750003118,143.93620899994858,143.6811315000523,143.78319009998813,,,,,,,,,,,,,,,,,002,2021_Dec_01_1410,cueing,2021.2.3,None,
endo,-90,"(-0.035, 0)",0.7866571383694275,correct,"(-0.4, 0)",a,0,7,7,2,,,,,,,,,,,a,0.4214263000758365,151.1041714999592,None,148.33233949996065,None,148.33233949996065,None,148.33233949996065,None,150.59810079995077,151.34935370006133,151.1041714999592,151.20314480003435,,,,,,,,,,,,,,,,,002,2021_Dec_01_1410,cueing,2021.2.3,None,
endo,-90,"(-0.035, 0)",0.7387684035985251,correct,"(-0.4, 0)",a,0,8,8,1,,,,,,,,,,,a,0.02264169999398291,154.2738869000459,None,151.55212500004563,None,151.55212500004563,None,151.55212500004563,None,153.76453619997483,None,154.2738869000459,None,,,,,,,,,,,,,,,,,002,2021_Dec_01_1410,cueing,2021.2.3,None,
endo,-90,"(-0.035, 0)",0.7056869244497335,correct,"(-0.4, 0)",a,0,9,9,0,,,,,,,,,,,a,0.34828250005375594,157.004211600055,None,154.31953179999255,None,154.31953179999255,None,154.31953179999255,None,156.50453939998988,157.25052750005852,157.004211600055,157.10721519996878,,,,,,,,,,,,,,,,,002,2021_Dec_01_1410,cueing,2021.2.3,None,
endo,-90,"(-0.035, 0)",0.5922941594138551,correct,"(-0.4, 0)",a,0,10,10,4,,,,,,,,,,,None,,159.95346280001104,None,157.3768054000102,164.37741239997558,157.3768054000102,164.37741239997558,157.3768054000102,164.37741239997558,159.44362360006198,160.18862380005885,159.95346280001104,160.05028770002536,,,,,,,,,,,,,,,,,002,2021_Dec_01_1410,cueing,2021.2.3,None,
endo,90,"(0.035, 0)",0.4283499593741631,correct,"(0.4, 0)",l,0,11,11,24,,,,,,,,,,,l,0.363803599961102,169.36700990004465,166.9557939999504,166.9557939999504,None,166.9557939999504,None,166.9557939999504,None,168.8682720999932,169.61979849997442,169.36700990004465,169.4691258999519,,,,,,,,,,,,,,,,,002,2021_Dec_01_1410,cueing,2021.2.3,None,
endo,90,"(0.035, 0)",0.9127004317251198,incorrect,"(-0.4, 0)",a,0,12,12,19,,,,,,,,,,,None,,172.64350600005127,None,169.74615130003076,176.75209740002174,169.74615130003076,176.75209740002174,169.74615130003076,176.75209740002174,172.13399390003178,172.8866741999518,172.64350600005127,172.74223920004442,,,,,,,,,,,,,,,,,002,2021_Dec_01_1410,cueing,2021.2.3,None,
endo,-90,"(-0.035, 0)",0.23391027043498136,correct,"(-0.4, 0)",a,0,13,13,8,,,,,,,,,,,a,0.3709466999862343,181.868197600008,179.65111700003035,179.65111700003035,None,179.65111700003035,None,179.65111700003035,None,181.35782429995015,182.11225650005508,181.868197600008,181.96995940001216,,,,,,,,,,,,,,,,,002,2021_Dec_01_1410,cueing,2021.2.3,None,
endo,-90,"(-0.035, 0)",0.7701712865549922,incorrect,"(0.4, 0)",l,0,14,14,34,,,,,,,,,,,None,,185.00035119999666,None,182.25529550004285,189.2509414999513,182.25529550004285,189.2509414999513,182.25529550004285,189.2509414999513,184.5032183000585,185.25145450001583,185.00035119999666,185.09790060005616,,,,,,,,,,,,,,,,,002,2021_Dec_01_1410,cueing,2021.2.3,None,
endo,-90,"(-0.035, 0)",0.2976392595268207,incorrect,"(0.4, 0)",l,0,15,15,31,,,,,,,,,,,None,,194.27337349997833,191.99713370006066,191.99713370006066,199.00560879998375,191.99713370006066,199.00560879998375,191.99713370006066,199.00560879998375,193.77696229994763,194.5271088000154,194.27337349997833,194.37260250002146,,,,,,,,,,,,,,,,,002,2021_Dec_01_1410,cueing,2021.2.3,None,
endo,-90,"(-0.035, 0)",0.5469701378611879,incorrect,"(0.4, 0)",l,0,16,16,32,,,,,,,,,,,None,,203.79979139997158,201.27529030002188,201.27529030002188,208.2744367000414,201.27529030002188,208.2744367000414,201.27529030002188,208.2744367000414,203.3030573000433,204.05557329999283,203.79979139997158,203.89914210001007,,,,,,,,,,,,,,,,,002,2021_Dec_01_1410,cueing,2021.2.3,None,
endo,-90,"(-0.035, 0)",0.7043933979083875,incorrect,"(0.4, 0)",l,0,17,17,39,,,,,,,,,,,l,1.4148043000604957,213.47841049998533,210.79954749997705,210.79954749997705,None,210.79954749997705,None,210.79954749997705,None,212.98247509996872,213.73883459996432,213.47841049998533,213.57346760004293,,,,,,,,,,,,,,,,,002,2021_Dec_01_1410,cueing,2021.2.3,None,
endo,-90,"(-0.035, 0)",0.29956714904652626,incorrect,"(0.4, 0)",l,0,18,18,36,,,,,,,,,,,None,,217.19516540004406,None,214.92085440002847,221.91543259995524,214.92085440002847,221.91543259995524,214.92085440002847,221.91543259995524,216.69699960004073,217.45089179999195,217.19516540004406,217.29713520000223,,,,,,,,,,,,,,,,,002,2021_Dec_01_1410,cueing,2021.2.3,None,
endo,90,"(0.035, 0)",0.19704960639573776,incorrect,"(-0.4, 0)",a,0,19,19,16,,,,,,,,,,,None,,226.37615769996773,224.20346170000266,224.20346170000266,231.19929530005902,224.20346170000266,231.19929530005902,224.20346170000266,231.19929530005902,225.87797449994832,226.6273472000612,226.37615769996773,226.474078200059,,,,,,,,,,,,,,,,,002,2021_Dec_01_1410,cueing,2021.2.3,None,
endo,-90,"(-0.035, 0)",0.7669666969931148,correct,"(-0.4, 0)",a,0,20,20,9,,,,,,,,,,,a,0.5117546999827027,236.1205828000093,233.38100850000046,233.38100850000046,None,233.38100850000046,None,233.38100850000046,None,235.6235343000153,236.3760913000442,236.1205828000093,236.22001519997139,,,,,,,,,,,,,,,,,002,2021_Dec_01_1410,cueing,2021.2.3,None,
endo,90,"(0.035, 0)",0.6423195276025604,correct,"(0.4, 0)",l,0,21,21,21,,,,,,,,,,,l,0.372774500050582,239.26576350000687,None,236.64859590004198,None,236.64859590004198,None,236.64859590004198,None,238.76874390000012,239.52708959998563,239.26576350000687,239.37496699998155,,,,,,,,,,,,,,,,,002,2021_Dec_01_1410,cueing,2021.2.3,None,
endo,-90,"(-0.035, 0)",0.37307711698805524,incorrect,"(0.4, 0)",l,0,22,22,37,,,,,,,,,,,None,,242.0123670999892,None,239.66620590002276,246.66053590003867,239.66620590002276,246.66053590003867,239.66620590002276,246.66053590003867,241.51447890000418,242.26053460000549,242.0123670999892,242.1159786999924,,,,,,,,,,,,,,,,,002,2021_Dec_01_1410,cueing,2021.2.3,None,
endo,-90,"(-0.035, 0)",0.02396326924047798,correct,"(-0.4, 0)",a,0,23,23,7,,,,,,,,,,,a,0.3906063000904396,251.0117686999729,249.01320190005936,249.01320190005936,None,249.01320190005936,None,249.01320190005936,None,250.51397129998077,251.26552999997512,251.0117686999729,251.12145500001498,,,,,,,,,,,,,,,,,002,2021_Dec_01_1410,cueing,2021.2.3,None,
endo,90,"(0.035, 0)",0.8970076051360286,correct,"(0.4, 0)",l,0,24,24,20,,,,,,,,,,,l,0.4508841000497341,254.29000979999546,None,251.41859470005147,None,251.41859470005147,None,251.41859470005147,None,253.79318669997156,254.54713119997177,254.29000979999546,254.39037929999176,,,,,,,,,,,,,,,,,002,2021_Dec_01_1410,cueing,2021.2.3,None,
endo,-90,"(-0.035, 0)",0.9828471876315273,incorrect,"(0.4, 0)",l,0,25,25,30,,,,,,,,,,,l,0.5146371000446379,257.7202120999573,None,254.76250830001663,None,254.76250830001663,None,254.76250830001663,None,257.22337999998126,257.97492229996715,257.7202120999573,257.8177622000221,,,,,,,,,,,,,,,,,002,2021_Dec_01_1410,cueing,2021.2.3,None,
endo,90,"(0.035, 0)",0.9478101236950716,correct,"(0.4, 0)",l,0,26,26,26,,,,,,,,,,,l,0.41849509999156,261.18046609999146,None,258.2597691999981,None,258.2597691999981,None,258.2597691999981,None,260.6838738999795,261.43643440003507,261.18046609999146,261.28990370000247,,,,,,,,,,,,,,,,,002,2021_Dec_01_1410,cueing,2021.2.3,None,
endo,90,"(0.035, 0)",0.9010739803891251,incorrect,"(-0.4, 0)",a,0,27,27,11,,,,,,,,,,,l,0.7777663000160828,264.50186560000293,None,261.62558640004136,None,261.62558640004136,None,261.62558640004136,None,264.00471819995437,264.7633488000138,264.50186560000293,264.59836679999717,,,,,,,,,,,,,,,,,002,2021_Dec_01_1410,cueing,2021.2.3,None,
endo,90,"(0.035, 0)",0.3939797644424977,incorrect,"(-0.4, 0)",a,0,28,28,15,,,,,,,,,,,a,0.6794693999690935,267.67248990002554,None,265.29663630004507,None,265.29663630004507,None,265.29663630004507,None,267.17507400002796,267.9271141999634,267.67248990002554,267.769439100055,,,,,,,,,,,,,,,,,002,2021_Dec_01_1410,cueing,2021.2.3,None,
endo,-90,"(-0.035, 0)",0.04779793183180647,incorrect,"(0.4, 0)",l,0,29,29,33,,,,,,,,,,,l,0.40442959999199957,270.39236759999767,None,268.3682841999689,None,268.3682841999689,None,268.3682841999689,None,269.89052530005574,270.63846339995507,270.39236759999767,270.5009653000161,,,,,,,,,,,,,,,,,002,2021_Dec_01_1410,cueing,2021.2.3,None,
endo,90,"(0.035, 0)",0.18359352140224616,incorrect,"(-0.4, 0)",a,0,30,30,18,,,,,,,,,,,a,0.427036999957636,272.97431479999796,None,270.8143119000597,None,270.8143119000597,None,270.8143119000597,None,272.4772485999856,273.22361520002596,272.97431479999796,273.0775534999557,,,,,,,,,,,,,,,,,002,2021_Dec_01_1410,cueing,2021.2.3,None,
endo,-90,"(-0.035, 0)",0.9206860483593494,incorrect,"(0.4, 0)",l,0,31,31,38,,,,,,,,,,,l,0.3283506999723613,276.3259827999864,None,273.42827290005516,None,273.42827290005516,None,273.42827290005516,None,275.82932789996266,276.57483639998827,276.3259827999864,276.43516250001267,,,,,,,,,,,,,,,,,002,2021_Dec_01_1410,cueing,2021.2.3,None,
endo,-90,"(-0.035, 0)",0.28340262260056537,correct,"(-0.4, 0)",a,0,32,32,3,,,,,,,,,,,a,0.40347980009391904,278.93792389996815,None,276.6719139000634,None,276.6719139000634,None,276.6719139000634,None,278.428658299963,279.17586439999286,278.93792389996815,279.03583990002517,,,,,,,,,,,,,,,,,002,2021_Dec_01_1410,cueing,2021.2.3,None,
endo,90,"(0.035, 0)",0.7025707610448116,correct,"(0.4, 0)",l,0,33,33,28,,,,,,,,,,,l,0.2907898999983445,282.0474747000262,None,279.36007699999027,None,279.36007699999027,None,279.36007699999027,None,281.5383327000309,282.2844787000213,282.0474747000262,282.14732800005004,,,,,,,,,,,,,,,,,002,2021_Dec_01_1410,cueing,2021.2.3,None,
endo,-90,"(-0.035, 0)",0.42702221127828477,correct,"(-0.4, 0)",a,0,34,34,6,,,,,,,,,,,a,0.2175380999688059,284.76817299996037,None,282.3619913000148,None,282.3619913000148,None,282.3619913000148,None,284.2707909999881,None,284.76817299996037,284.8655880000442,,,,,,,,,,,,,,,,,002,2021_Dec_01_1410,cueing,2021.2.3,None,
endo,90,"(0.035, 0)",0.38360493617076563,incorrect,"(-0.4, 0)",a,0,35,35,13,,,,,,,,,,,a,0.3585596999619156,287.36856350000016,None,285.0107120999601,None,285.0107120999601,None,285.0107120999601,None,286.87077429995406,287.6167282999959,287.36856350000016,287.47205540002324,,,,,,,,,,,,,,,,,002,2021_Dec_01_1410,cueing,2021.2.3,None,
endo,-90,"(-0.035, 0)",0.5645407691009291,correct,"(-0.4, 0)",a,0,36,36,5,,,,,,,,,,,a,0.46975129994098097,290.29025459999684,None,287.74462250003126,None,287.74462250003126,None,287.74462250003126,None,289.79228150006384,290.54159399995115,290.29025459999684,290.3887066000607,,,,,,,,,,,,,,,,,002,2021_Dec_01_1410,cueing,2021.2.3,None,
endo,90,"(0.035, 0)",0.2379684415492357,incorrect,"(-0.4, 0)",a,0,37,37,14,,,,,,,,,,,a,0.3379474999383092,293.0040434000548,None,290.78081500006374,None,290.78081500006374,None,290.78081500006374,None,292.49629779998213,293.24369340005796,293.0040434000548,293.10339000006206,,,,,,,,,,,,,,,,,002,2021_Dec_01_1410,cueing,2021.2.3,None,
endo,90,"(0.035, 0)",0.39625884761736807,correct,"(0.4, 0)",l,0,38,38,23,,,,,,,,,,,l,0.3707690000301227,295.73762679996435,None,293.36293599999044,None,293.36293599999044,None,293.36293599999044,None,295.2404412999749,295.99229780002497,295.73762679996435,295.8361437000567,,,,,,,,,,,,,,,,,002,2021_Dec_01_1410,cueing,2021.2.3,None,
endo,90,"(0.035, 0)",0.6591262849764731,correct,"(0.4, 0)",l,0,39,39,22,,,,,,,,,,,l,0.2841486999532208,298.7676668999484,None,296.1249479999533,None,296.1249479999533,None,296.1249479999533,None,298.25850029999856,299.01208889996633,298.7676668999484,298.866425300017,,,,,,,,,,,,,,,,,002,2021_Dec_01_1410,cueing,2021.2.3,None,
exo,,"(-0.4, 0)",0.9427788862349625,incorrect,"(0.4, 0)",l,,,,,0,0,0,37,,,,,,,,,,,,,,,,,,,,,l,0.8182231000391766,301.65248030005023,None,299.1385058000451,None,299.1385058000451,None,299.1385058000451,None,301.5556939999806,301.65248030005023,301.65248030005023,301.75768529996276,,,002,2021_Dec_01_1410,cueing,2021.2.3,None,
exo,,"(0.4, 0)",0.42042298933524336,correct,"(0.4, 0)",l,,,,,0,1,1,21,,,,,,,,,,,,,,,,,,,,,l,0.5468174000270665,304.49472880002577,None,302.4897241999861,None,302.4897241999861,None,302.4897241999861,None,304.38592100003734,304.48262280004565,304.49472880002577,304.5998718000483,,,002,2021_Dec_01_1410,cueing,2021.2.3,None,
exo,,"(0.4, 0)",0.2427756313014502,correct,"(0.4, 0)",l,,,,,0,2,2,25,,,,,,,,,,,,,,,,,,,,,l,0.35438729997258633,306.88874910003506,None,305.06489459995646,None,305.06489459995646,None,305.06489459995646,None,306.7917000000598,306.88874910003506,306.88874910003506,306.9955088000279,,,002,2021_Dec_01_1410,cueing,2021.2.3,None,
exo,,"(0.4, 0)",0.28710372813133933,correct,"(0.4, 0)",l,,,,,0,3,3,23,,,,,,,,,,,,,,,,,,,,,l,0.360356800025329,309.12515330000315,None,307.25929069996346,None,307.25929069996346,None,307.25929069996346,None,309.02807350002695,309.12515330000315,309.12515330000315,309.23135610006284,,,002,2021_Dec_01_1410,cueing,2021.2.3,None,
exo,,"(0.4, 0)",0.2836317994317733,incorrect,"(-0.4, 0)",a,,,,,0,4,4,10,,,,,,,,,,,,,,,,,,,,,a,0.44550899998284876,311.3735980000347,None,309.51286430004984,None,309.51286430004984,None,309.51286430004984,None,311.2767921000486,311.3735980000347,311.3735980000347,311.4685221000109,,,002,2021_Dec_01_1410,cueing,2021.2.3,None,
exo,,"(0.4, 0)",0.7938944825899228,correct,"(0.4, 0)",l,,,,,0,5,5,22,,,,,,,,,,,,,,,,,,,,,l,0.4103238999377936,314.2159303999506,None,311.8402877000626,None,311.8402877000626,None,311.8402877000626,None,314.1074799000053,314.2036660000449,314.2159303999506,314.3213631999679,,,002,2021_Dec_01_1410,cueing,2021.2.3,None,
exo,,"(0.4, 0)",0.641709836185558,incorrect,"(-0.4, 0)",a,,,,,0,6,6,12,,,,,,,,,,,,,,,,,,,,,a,0.3890695000300184,316.86428420001175,None,314.6463265999919,None,314.6463265999919,None,314.6463265999919,None,316.7679184000008,316.86428420001175,316.86428420001175,316.9693408999592,,,002,2021_Dec_01_1410,cueing,2021.2.3,None,
exo,,"(-0.4, 0)",0.1153605878572842,incorrect,"(0.4, 0)",l,,,,,0,7,7,31,,,,,,,,,,,,,,,,,,,,,l,0.43779509991873056,318.96721609996166,None,317.2696694000624,None,317.2696694000624,None,317.2696694000624,None,318.85808639996685,318.95498769998085,318.96721609996166,319.07400360004976,,,002,2021_Dec_01_1410,cueing,2021.2.3,None,
exo,,"(0.4, 0)",0.7952770235546287,correct,"(0.4, 0)",l,,,,,0,8,8,28,,,,,,,,,,,,,,,,,,,,,l,0.3860114999115467,321.809575399966,None,319.4316768000135,None,319.4316768000135,None,319.4316768000135,None,321.7125628000358,321.809575399966,321.809575399966,321.91550110001117,,,002,2021_Dec_01_1410,cueing,2021.2.3,None,
exo,,"(0.4, 0)",0.4433431966992393,incorrect,"(-0.4, 0)",a,,,,,0,9,9,18,,,,,,,,,,,,,,,,,,,,,a,0.5199399000266567,324.23386130004656,None,322.21066490001976,None,322.21066490001976,None,322.21066490001976,None,324.13683139998466,324.23386130004656,324.23386130004656,324.3407979999902,,,002,2021_Dec_01_1410,cueing,2021.2.3,None,
exo,,"(-0.4, 0)",0.004487989147306193,incorrect,"(0.4, 0)",l,,,,,0,10,10,30,,,,,,,,,,,,,,,,,,,,,l,0.4259081999771297,326.36128790001385,None,324.7794966000365,None,324.7794966000365,None,324.7794966000365,None,326.2652007000288,326.36128790001385,326.36128790001385,326.4697118999902,,,002,2021_Dec_01_1410,cueing,2021.2.3,None,
exo,,"(0.4, 0)",0.0021202459600094814,incorrect,"(-0.4, 0)",a,,,,,0,11,11,14,,,,,,,,,,,,,,,,,,,,,a,0.6387204000493512,328.39127170003485,None,326.8074850999983,None,326.8074850999983,None,326.8074850999983,None,328.28277429996524,328.3790484999772,328.39127170003485,328.49544530001003,,,002,2021_Dec_01_1410,cueing,2021.2.3,None,
exo,,"(-0.4, 0)",0.5323305070662401,incorrect,"(0.4, 0)",l,,,,,0,12,12,35,,,,,,,,,,,,,,,,,,,,,l,0.4028505999594927,331.1615288000321,None,329.05323900002986,None,329.05323900002986,None,329.05323900002986,None,331.06398810003884,331.1615288000321,331.1615288000321,331.25745200004894,,,002,2021_Dec_01_1410,cueing,2021.2.3,None,
exo,,"(-0.4, 0)",0.5762605474981782,correct,"(-0.4, 0)",a,,,,,0,13,13,2,,,,,,,,,,,,,,,,,,,,,a,0.3838209999958053,333.73662890004925,None,331.5856298999861,None,331.5856298999861,None,331.5856298999861,None,333.6399115000386,333.73662890004925,333.73662890004925,333.83325819997117,,,002,2021_Dec_01_1410,cueing,2021.2.3,None,
exo,,"(-0.4, 0)",0.1564137278799309,correct,"(-0.4, 0)",a,,,,,0,14,14,1,,,,,,,,,,,,,,,,,,,,,a,0.408083499991335,335.87610330001917,None,334.14269390003756,None,334.14269390003756,None,334.14269390003756,None,335.7792518000351,335.87610330001917,335.87610330001917,335.9814768000506,,,002,2021_Dec_01_1410,cueing,2021.2.3,None,
exo,,"(-0.4, 0)",0.8593638337304581,incorrect,"(0.4, 0)",l,,,,,0,15,15,39,,,,,,,,,,,,,,,,,,,,,l,0.4012768999673426,338.7487390000606,None,336.30342380004004,None,336.30342380004004,None,336.30342380004004,None,338.63957190001383,338.7367110999767,338.7487390000606,338.85236340004485,,,002,2021_Dec_01_1410,cueing,2021.2.3,None,
exo,,"(0.4, 0)",0.8129667345671767,incorrect,"(-0.4, 0)",a,,,,,0,16,16,16,,,,,,,,,,,,,,,,,,,,,a,0.5191438000183553,341.5621947000036,None,339.16980100004,None,339.16980100004,None,339.16980100004,None,341.46381079999264,341.5621947000036,341.5621947000036,341.65921069995966,,,002,2021_Dec_01_1410,cueing,2021.2.3,None,
exo,,"(0.4, 0)",0.5147733584100419,correct,"(0.4, 0)",l,,,,,0,17,17,29,,,,,,,,,,,,,,,,,,,,,l,0.39502580009866506,344.1911144000478,None,342.09734940005,None,342.09734940005,None,342.09734940005,None,344.0940866000019,344.1911144000478,344.1911144000478,344.2977095999522,,,002,2021_Dec_01_1410,cueing,2021.2.3,None,
exo,,"(-0.4, 0)",0.5921052648072145,incorrect,"(0.4, 0)",l,,,,,0,18,18,34,,,,,,,,,,,,,,,,,,,,,None,,346.77277789998334,None,344.6026807000162,351.6039450999815,344.6026807000162,351.6039450999815,344.6026807000162,351.6039450999815,346.67593949998263,346.77277789998334,346.77277789998334,346.8814000999555,,,002,2021_Dec_01_1410,cueing,2021.2.3,None,
exo,,"(-0.4, 0)",0.49994137550299844,correct,"(-0.4, 0)",a,,,,,0,19,19,8,,,,,,,,,,,,,,,,,,,,,a,0.5834197000367567,355.8575011000503,353.7811428999994,353.7811428999994,None,353.7811428999994,None,353.7811428999994,None,355.7603758999612,355.8575011000503,355.8575011000503,355.96444160002284,,,002,2021_Dec_01_1410,cueing,2021.2.3,None,
exo,,"(-0.4, 0)",0.33228981667356505,correct,"(-0.4, 0)",a,,,,,0,20,20,0,,,,,,,,,,,,,,,,,,,,,a,0.42070830008015037,358.3666480999673,None,356.4572358999867,None,356.4572358999867,None,356.4572358999867,None,358.27006520004943,358.3666480999673,358.3666480999673,358.4762529999716,,,002,2021_Dec_01_1410,cueing,2021.2.3,None,
exo,,"(0.4, 0)",0.843533813309906,incorrect,"(-0.4, 0)",a,,,,,0,21,21,15,,,,,,,,,,,,,,,,,,,,,None,,361.2269538999535,None,358.8092263999861,365.8085488999495,358.8092263999861,365.8085488999495,358.8092263999861,365.8085488999495,361.1306006000377,361.2269538999535,361.2269538999535,361.33168960001785,,,002,2021_Dec_01_1410,cueing,2021.2.3,None,
exo,,"(0.4, 0)",0.6213500325446535,correct,"(0.4, 0)",l,,,,,0,22,22,24,,,,,,,,,,,,,,,,,,,,,None,,370.4328075000085,368.23483069997746,368.23483069997746,375.2336049999576,368.23483069997746,375.2336049999576,368.23483069997746,375.2336049999576,370.3360093999654,370.4328075000085,370.4328075000085,370.54052749997936,,,002,2021_Dec_01_1410,cueing,2021.2.3,None,
exo,,"(0.4, 0)",0.5423668062603715,incorrect,"(-0.4, 0)",a,,,,,0,23,23,11,,,,,,,,,,,,,,,,,,,,,a,0.4406471000984311,379.54931360005867,377.430058500031,377.430058500031,None,377.430058500031,None,377.430058500031,None,379.4517670000205,379.54931360005867,379.54931360005867,379.64586479996797,,,002,2021_Dec_01_1410,cueing,2021.2.3,None,
exo,,"(-0.4, 0)",0.1204646432692501,correct,"(-0.4, 0)",a,,,,,0,24,24,5,,,,,,,,,,,,,,,,,,,,,a,0.3869729000143707,381.71136630000547,None,380.01423089997843,None,380.01423089997843,None,380.01423089997843,None,381.6146119000623,381.71136630000547,381.71136630000547,381.8062159999972,,,002,2021_Dec_01_1410,cueing,2021.2.3,None,
exo,,"(-0.4, 0)",0.24050347507599634,correct,"(-0.4, 0)",a,,,,,0,25,25,4,,,,,,,,,,,,,,,,,,,,,a,0.4782370999455452,383.9422427000245,None,382.1236122000264,None,382.1236122000264,None,382.1236122000264,None,383.84123969997745,383.9422427000245,383.9422427000245,384.0421343999915,,,002,2021_Dec_01_1410,cueing,2021.2.3,None,
exo,,"(0.4, 0)",0.6134322306232748,correct,"(0.4, 0)",l,,,,,0,26,26,20,,,,,,,,,,,,,,,,,,,,,l,0.42069569998420775,386.63259269995615,None,384.43869079998694,None,384.43869079998694,None,384.43869079998694,None,386.53548880002927,386.63259269995615,386.63259269995615,386.7365283999825,,,002,2021_Dec_01_1410,cueing,2021.2.3,None,
exo,,"(0.4, 0)",0.8504486269585174,incorrect,"(-0.4, 0)",a,,,,,0,27,27,13,,,,,,,,,,,,,,,,,,,,,a,0.564095199923031,389.5052651000442,None,387.0759713000152,None,387.0759713000152,None,387.0759713000152,None,389.40892089996487,389.5052651000442,389.5052651000442,389.6024960000068,,,002,2021_Dec_01_1410,cueing,2021.2.3,None,
exo,,"(0.4, 0)",0.5428012121350249,incorrect,"(-0.4, 0)",a,,,,,0,28,28,19,,,,,,,,,,,,,,,,,,,,,a,0.41799339989665896,392.2225629000459,None,390.0934460000135,None,390.0934460000135,None,390.0934460000135,None,392.11822880001273,392.2225629000459,392.2225629000459,392.3246247000061,,,002,2021_Dec_01_1410,cueing,2021.2.3,None,
exo,,"(-0.4, 0)",0.04126128936196305,correct,"(-0.4, 0)",a,,,,,0,29,29,7,,,,,,,,,,,,,,,,,,,,,a,0.4144491000333801,394.2750809000572,None,392.6566113999579,None,392.6566113999579,None,392.6566113999579,None,394.17824379995,394.2750809000572,394.2750809000572,394.3843183000572,,,002,2021_Dec_01_1410,cueing,2021.2.3,None,
exo,,"(-0.4, 0)",0.36271911781023525,correct,"(-0.4, 0)",a,,,,,0,30,30,3,,,,,,,,,,,,,,,,,,,,,a,0.4461182000814006,396.650680599967,None,394.7090938000474,None,394.7090938000474,None,394.7090938000474,None,396.55369019997306,396.650680599967,396.650680599967,396.759768399992,,,002,2021_Dec_01_1410,cueing,2021.2.3,None,
exo,,"(-0.4, 0)",0.45451080672945254,incorrect,"(0.4, 0)",l,,,,,0,31,31,33,,,,,,,,,,,,,,,,,,,,,l,0.5574863000074401,399.1595319999615,None,397.1245075999759,None,397.1245075999759,None,397.1245075999759,None,399.06388230004814,399.1595319999615,399.1595319999615,399.2690549000399,,,002,2021_Dec_01_1410,cueing,2021.2.3,None,
exo,,"(-0.4, 0)",0.37826961368195333,incorrect,"(0.4, 0)",l,,,,,0,32,32,38,,,,,,,,,,,,,,,,,,,,,None,,401.7056963000214,None,399.74429830000736,406.7411953000119,399.74429830000736,406.7411953000119,399.74429830000736,406.7411953000119,401.6081435000524,401.7056963000214,401.7056963000214,401.8042087999638,,,002,2021_Dec_01_1410,cueing,2021.2.3,None,
exo,,"(0.4, 0)",0.7386611339705057,correct,"(0.4, 0)",l,,,,,0,33,33,27,,,,,,,,,,,,,,,,,,,,,None,,411.0270277999807,408.7080436999677,408.7080436999677,415.71067349996883,408.7080436999677,415.71067349996883,408.7080436999677,415.71067349996883,410.9290945000248,411.0270277999807,411.0270277999807,411.13508250005543,,,002,2021_Dec_01_1410,cueing,2021.2.3,None,
exo,,"(-0.4, 0)",0.6190691391152903,correct,"(-0.4, 0)",a,,,,,0,34,34,6,,,,,,,,,,,,,,,,,,,,,a,0.4728114999597892,420.23252079996746,418.0340623999946,418.0340623999946,None,418.0340623999946,None,418.0340623999946,None,420.13537200004794,420.23252079996746,420.23252079996746,420.3318153000437,,,002,2021_Dec_01_1410,cueing,2021.2.3,None,
exo,,"(-0.4, 0)",0.32297157550068845,incorrect,"(0.4, 0)",l,,,,,0,35,35,32,,,,,,,,,,,,,,,,,,,,,l,0.6326068000635132,422.621725999983,None,420.72460459999274,None,420.72460459999274,None,420.72460459999274,None,422.5248285999987,422.621725999983,422.621725999983,422.72275359998457,,,002,2021_Dec_01_1410,cueing,2021.2.3,None,
exo,,"(-0.4, 0)",0.27238578623149223,correct,"(-0.4, 0)",a,,,,,0,36,36,9,,,,,,,,,,,,,,,,,,,,,a,0.35260240000206977,425.1260381999891,None,423.27754539996386,None,423.27754539996386,None,423.27754539996386,None,425.02573750005104,425.1260381999891,425.1260381999891,425.2337042000145,,,002,2021_Dec_01_1410,cueing,2021.2.3,None,
exo,,"(0.4, 0)",0.09319469313166973,incorrect,"(-0.4, 0)",a,,,,,0,37,37,17,,,,,,,,,,,,,,,,,,,,,l,0.4390635999152437,427.1773462999845,None,425.505567300017,None,425.505567300017,None,425.505567300017,None,427.0805267000105,427.1773462999845,427.1773462999845,427.2739509999519,,,002,2021_Dec_01_1410,cueing,2021.2.3,None,
exo,,"(-0.4, 0)",0.987689543319433,incorrect,"(0.4, 0)",l,,,,,0,38,38,36,,,,,,,,,,,,,,,,,,,,,l,0.4378976000007242,430.201856700005,None,427.63874550000764,None,427.63874550000764,None,427.63874550000764,None,430.10487979999743,430.201856700005,430.201856700005,430.3079680999508,,,002,2021_Dec_01_1410,cueing,2021.2.3,None,
exo,,"(0.4, 0)",0.0325124900817807,correct,"(0.4, 0)",l,,,,,0,39,39,26,,,,,,,,,,,,,,,,,,,,,l,0.36671049997676164,432.268058000016,None,430.6626476000529,None,430.6626476000529,None,430.6626476000529,None,432.17103560001124,432.268058000016,432.268058000016,432.3727208999917,,,002,2021_Dec_01_1410,cueing,2021.2.3,None,
,,,,,,,,,,,,,,,,,,,,,,,,,,,,,,,,,,,,,,,,,,,,,,,,,432.73955739999656,None,,,,,,
