cue_stim_type,cue_orientation,cue_position,cue_time,cue_type,stim_position,expected_response,trials.thisRepN,trials.thisTrialN,trials.thisN,trials.thisIndex,exo_trials.thisRepN,exo_trials.thisTrialN,exo_trials.thisN,exo_trials.thisIndex,intro_text.started,intro_text.stopped,intro_resp.keys,intro_resp.rt,intro_resp.started,intro_resp.stopped,key_resp.keys,key_resp.rt,key_resp.started,key_resp.stopped,endo_right.started,endo_right.stopped,endo_left.started,endo_left.stopped,fixation_cross.started,fixation_cross.stopped,endo_cue.started,endo_cue.stopped,endo_stimulus.started,endo_stimulus.stopped,key_resp_2.keys,key_resp_2.started,key_resp_2.stopped,exo_right.started,exo_right.stopped,exo_left.started,exo_left.stopped,fixation.started,fixation.stopped,exo_cue.started,exo_cue.stopped,exo_stimulus.started,exo_stimulus.stopped,key_resp_2.rt,outro_text.started,outro_text.stopped,participant,date,expName,psychopyVersion,frameRate,
,,,,,,,,,,,,,,,127.35244289995171,None,space,62.35621270001866,127.35244289995171,None,,,,,,,,,,,,,,,,,,,,,,,,,,,,,,,003,2021_Dec_01_1420,cueing,2021.2.3,None,
endo,90,"(0.035, 0)",0.4283499593741631,correct,"(0.4, 0)",l,0,0,0,24,,,,,,,,,,,l,0.9279486000305042,192.1684178999858,None,189.744301800034,None,189.744301800034,None,189.744301800034,None,191.65803319995757,192.41493840003386,192.1684178999858,192.28199579997454,,,,,,,,,,,,,,,,,003,2021_Dec_01_1420,cueing,2021.2.3,None,
endo,-90,"(-0.035, 0)",0.2976392595268207,incorrect,"(0.4, 0)",l,0,1,1,31,,,,,,,,,,,None,,195.40934630006086,None,193.11843420006335,200.1182020000415,193.11843420006335,200.1182020000415,193.11843420006335,200.1182020000415,194.90025289996993,195.65193559997715,195.40934630006086,195.5194177000085,,,,,,,,,,,,,,,,,003,2021_Dec_01_1420,cueing,2021.2.3,None,
endo,-90,"(-0.035, 0)",0.37307711698805524,incorrect,"(0.4, 0)",l,0,2,2,37,,,,,,,,,,,None,,204.77240729995538,202.41738080000505,202.41738080000505,209.42282680002972,202.41738080000505,209.42282680002972,202.41738080000505,209.42282680002972,204.2753099000547,205.03651100001298,204.77240729995538,204.88271140004508,,,,,,,,,,,,,,,,,003,2021_Dec_01_1420,cueing,2021.2.3,None,
endo,90,"(0.035, 0)",0.39625884761736807,correct,"(0.4, 0)",l,0,3,3,23,,,,,,,,,,,None,,214.16079100000206,211.7745009000646,211.7745009000646,218.78405679995194,211.7745009000646,218.78405679995194,211.7745009000646,218.78405679995194,213.66298510006163,214.41550790006295,214.16079100000206,214.2718673000345,,,,,,,,,,,,,,,,,003,2021_Dec_01_1420,cueing,2021.2.3,None,
endo,-90,"(-0.035, 0)",0.7043933979083875,incorrect,"(0.4, 0)",l,0,4,4,39,,,,,,,,,,,None,,223.86383659997955,221.17426420003176,221.17426420003176,228.1844974999549,221.17426420003176,228.1844974999549,221.17426420003176,228.1844974999549,223.3702172000194,224.12384200002998,223.86383659997955,223.9674788999837,,,,,,,,,,,,,,,,,003,2021_Dec_01_1420,cueing,2021.2.3,None,
endo,90,"(0.035, 0)",0.9127004317251198,incorrect,"(-0.4, 0)",a,0,5,5,19,,,,,,,,,,,a,0.34290809999220073,233.76811279996764,230.87154510000255,230.87154510000255,None,230.87154510000255,None,230.87154510000255,None,233.26875769998878,234.02694939996582,233.76811279996764,233.881698400015,,,,,,,,,,,,,,,,,003,2021_Dec_01_1420,cueing,2021.2.3,None,
endo,-90,"(-0.035, 0)",0.23391027043498136,correct,"(-0.4, 0)",a,0,6,6,8,,,,,,,,,,,a,0.3301066999556497,236.35538860002998,None,234.12915249995422,None,234.12915249995422,None,234.12915249995422,None,235.8455224999925,236.59648389997892,236.35538860002998,236.46551640005782,,,,,,,,,,,,,,,,,003,2021_Dec_01_1420,cueing,2021.2.3,None,
endo,90,"(0.035, 0)",0.18359352140224616,incorrect,"(-0.4, 0)",a,0,7,7,18,,,,,,,,,,,None,,238.88735670002643,None,236.71228480001446,243.71811959997285,236.71228480001446,243.71811959997285,236.71228480001446,243.71811959997285,238.3839147000108,239.13710829999764,238.88735670002643,238.99847029999364,,,,,,,,,,,,,,,,,003,2021_Dec_01_1420,cueing,2021.2.3,None,
endo,90,"(0.035, 0)",0.9706793863527535,incorrect,"(-0.4, 0)",a,0,8,8,10,,,,,,,,,,,None,,248.85140869999304,245.89022850000765,245.89022850000765,252.88774060003925,245.89022850000765,252.88774060003925,245.89022850000765,252.88774060003925,248.34204030002002,249.09987340006046,248.85140869999304,248.9538161000237,,,,,,,,,,,,,,,,,003,2021_Dec_01_1420,cueing,2021.2.3,None,
endo,90,"(0.035, 0)",0.6591262849764731,correct,"(0.4, 0)",l,0,9,9,22,,,,,,,,,,,l,0.3790671000024304,258.51101330004167,255.8583582000574,255.8583582000574,None,255.8583582000574,None,255.8583582000574,None,258.00298200000543,258.7592358000111,258.51101330004167,258.61438789998647,,,,,,,,,,,,,,,,,003,2021_Dec_01_1420,cueing,2021.2.3,None,
endo,90,"(0.035, 0)",0.3779252118559099,incorrect,"(-0.4, 0)",a,0,10,10,17,,,,,,,,,,,None,,261.2743799999589,None,258.91294910002034,265.9106856000144,258.91294910002034,265.9106856000144,258.91294910002034,265.9106856000144,260.77853969996795,261.53122939995956,261.2743799999589,261.38699729996733,,,,,,,,,,,,,,,,,003,2021_Dec_01_1420,cueing,2021.2.3,None,
endo,90,"(0.035, 0)",0.6423195276025604,correct,"(0.4, 0)",l,0,11,11,21,,,,,,,,,,,l,0.38270429999101907,270.9084257000359,268.2767888000235,268.2767888000235,None,268.2767888000235,None,268.2767888000235,None,270.4074247999815,271.15875339997,270.9084257000359,271.01059700001497,,,,,,,,,,,,,,,,,003,2021_Dec_01_1420,cueing,2021.2.3,None,
endo,-90,"(-0.035, 0)",0.42702221127828477,correct,"(-0.4, 0)",a,0,12,12,6,,,,,,,,,,,a,0.2853128999704495,273.73728919995483,None,271.3163708000211,None,271.3163708000211,None,271.3163708000211,None,273.2269693999551,273.98384580004495,273.73728919995483,273.83942219999153,,,,,,,,,,,,,,,,,003,2021_Dec_01_1420,cueing,2021.2.3,None,
endo,90,"(0.035, 0)",0.6144709735635417,correct,"(0.4, 0)",l,0,13,13,29,,,,,,,,,,,None,,276.6391140000196,None,274.03870709997136,281.03735969995614,274.03870709997136,281.03735969995614,274.03870709997136,281.03735969995614,276.1406268000137,276.899662300013,276.6391140000196,276.7408671999583,,,,,,,,,,,,,,,,,003,2021_Dec_01_1420,cueing,2021.2.3,None,
endo,90,"(0.035, 0)",0.19704960639573776,incorrect,"(-0.4, 0)",a,0,14,14,16,,,,,,,,,,,a,0.36148019996471703,285.83329710003454,283.6461278999923,283.6461278999923,None,283.6461278999923,None,283.6461278999923,None,285.32950520003214,286.0828637999948,285.83329710003454,285.9374226999935,,,,,,,,,,,,,,,,,003,2021_Dec_01_1420,cueing,2021.2.3,None,
endo,90,"(0.035, 0)",0.9010739803891251,incorrect,"(-0.4, 0)",a,0,15,15,11,,,,,,,,,,,a,0.3018566999817267,289.10439540003426,None,286.2140150000341,None,286.2140150000341,None,286.2140150000341,None,288.6015540000517,289.35945920005906,289.10439540003426,289.21880829997826,,,,,,,,,,,,,,,,,003,2021_Dec_01_1420,cueing,2021.2.3,None,
endo,90,"(0.035, 0)",0.3939797644424977,incorrect,"(-0.4, 0)",a,0,16,16,15,,,,,,,,,,,a,0.33799979998730123,291.81485510000493,None,289.4251984000439,None,289.4251984000439,None,289.4251984000439,None,291.3100190999685,292.0650386000052,291.81485510000493,291.93069800001103,,,,,,,,,,,,,,,,,003,2021_Dec_01_1420,cueing,2021.2.3,None,
endo,90,"(0.035, 0)",0.8970076051360286,correct,"(0.4, 0)",l,0,17,17,20,,,,,,,,,,,l,0.3423807000508532,295.0568372999551,None,292.1722134000156,None,292.1722134000156,None,292.1722134000156,None,294.55930870003067,295.3130284000654,295.0568372999551,295.16783669998404,,,,,,,,,,,,,,,,,003,2021_Dec_01_1420,cueing,2021.2.3,None,
endo,-90,"(-0.035, 0)",0.07901741602572421,incorrect,"(0.4, 0)",l,0,18,18,35,,,,,,,,,,,l,0.3026860000099987,297.4948954000138,None,295.4192100999644,None,295.4192100999644,None,295.4192100999644,None,296.98397559998557,297.7349806999555,297.4948954000138,297.59742040000856,,,,,,,,,,,,,,,,,003,2021_Dec_01_1420,cueing,2021.2.3,None,
endo,-90,"(-0.035, 0)",0.02396326924047798,correct,"(-0.4, 0)",a,0,19,19,7,,,,,,,,,,,a,0.2875300000887364,299.82777980004903,None,297.8139554000227,None,297.8139554000227,None,297.8139554000227,None,299.32799140003044,300.07747000001837,299.82777980004903,299.942300900002,,,,,,,,,,,,,,,,,003,2021_Dec_01_1420,cueing,2021.2.3,None,
endo,-90,"(-0.035, 0)",0.7387684035985251,correct,"(-0.4, 0)",a,0,20,20,1,,,,,,,,,,,a,0.26193909998983145,302.8567197000375,None,300.1344027000014,None,300.1344027000014,None,300.1344027000014,None,302.36563240003306,303.12155569996685,302.8567197000375,302.9617578999605,,,,,,,,,,,,,,,,,003,2021_Dec_01_1420,cueing,2021.2.3,None,
endo,-90,"(-0.035, 0)",0.7669666969931148,correct,"(-0.4, 0)",a,0,21,21,9,,,,,,,,,,,a,0.242686300072819,305.89288050006144,None,303.1396788000129,None,303.1396788000129,None,303.1396788000129,None,305.38883760001045,None,305.89288050006144,305.99488120002206,,,,,,,,,,,,,,,,,003,2021_Dec_01_1420,cueing,2021.2.3,None,
endo,-90,"(-0.035, 0)",0.5645407691009291,correct,"(-0.4, 0)",a,0,22,22,5,,,,,,,,,,,a,0.04640379990451038,308.7066105999984,None,306.15539500000887,None,306.15539500000887,None,306.15539500000887,None,308.21440950001124,306.15539500000887,308.7066105999984,None,,,,,,,,,,,,,,,,,003,2021_Dec_01_1420,cueing,2021.2.3,None,
endo,-90,"(-0.035, 0)",0.7866571383694275,correct,"(-0.4, 0)",a,0,23,23,2,,,,,,,,,,,a,0.22816439997404814,311.54825280001387,None,308.7680215999717,None,308.7680215999717,None,308.7680215999717,None,311.0433687999612,None,311.54825280001387,311.6499333999818,,,,,,,,,,,,,,,,,003,2021_Dec_01_1420,cueing,2021.2.3,None,
endo,90,"(0.035, 0)",0.9478101236950716,correct,"(0.4, 0)",l,0,24,24,26,,,,,,,,,,,l,0.3754079000791535,314.7466226000106,None,311.80234479997307,None,311.80234479997307,None,311.80234479997307,None,314.23685940005817,314.9949658999685,314.7466226000106,314.8507459999528,,,,,,,,,,,,,,,,,003,2021_Dec_01_1420,cueing,2021.2.3,None,
endo,-90,"(-0.035, 0)",0.7701712865549922,incorrect,"(0.4, 0)",l,0,25,25,34,,,,,,,,,,,l,0.29488539998419583,317.9008607000578,None,315.14583199995104,None,315.14583199995104,None,315.14583199995104,None,317.401234799996,318.153963400051,317.9008607000578,318.0068562000524,,,,,,,,,,,,,,,,,003,2021_Dec_01_1420,cueing,2021.2.3,None,
endo,-90,"(-0.035, 0)",0.29956714904652626,incorrect,"(0.4, 0)",l,0,26,26,36,,,,,,,,,,,l,0.3430535999359563,320.50510579999536,None,318.21870870003477,None,318.21870870003477,None,318.21870870003477,None,320.0011274999706,320.7587904999964,320.50510579999536,320.6091954000294,,,,,,,,,,,,,,,,,003,2021_Dec_01_1420,cueing,2021.2.3,None,
endo,-90,"(-0.035, 0)",0.5922941594138551,correct,"(-0.4, 0)",a,0,27,27,4,,,,,,,,,,,a,0.28162110003177077,323.46429589996114,None,320.8768475999823,None,320.8768475999823,None,320.8768475999823,None,322.9596731000347,323.71016170002986,323.46429589996114,323.5649238000624,,,,,,,,,,,,,,,,,003,2021_Dec_01_1420,cueing,2021.2.3,None,
endo,90,"(0.035, 0)",0.38360493617076563,incorrect,"(-0.4, 0)",a,0,28,28,13,,,,,,,,,,,a,0.25210219994187355,326.134566099965,None,323.76403910003137,None,323.76403910003137,None,323.76403910003137,None,325.63175339996815,326.3847402000101,326.134566099965,326.23969089996535,,,,,,,,,,,,,,,,,003,2021_Dec_01_1420,cueing,2021.2.3,None,
endo,-90,"(-0.035, 0)",0.9206860483593494,incorrect,"(0.4, 0)",l,0,29,29,38,,,,,,,,,,,l,0.34033690008800477,329.32160470006056,None,326.4125157999806,None,326.4125157999806,None,326.4125157999806,None,328.8249744999921,329.5859375,329.32160470006056,329.42544709995855,,,,,,,,,,,,,,,,,003,2021_Dec_01_1420,cueing,2021.2.3,None,
endo,-90,"(-0.035, 0)",0.04779793183180647,incorrect,"(0.4, 0)",l,0,30,30,33,,,,,,,,,,,l,0.3386560999788344,331.71814400004223,None,329.6788350000279,None,329.6788350000279,None,329.6788350000279,None,331.21230779995676,331.96379239996895,331.71814400004223,331.8202764999587,,,,,,,,,,,,,,,,,003,2021_Dec_01_1420,cueing,2021.2.3,None,
endo,90,"(0.035, 0)",0.4499901342346745,incorrect,"(-0.4, 0)",a,0,31,31,12,,,,,,,,,,,a,0.2578519999515265,334.5235243999632,None,332.0856010999996,None,332.0856010999996,None,332.0856010999996,None,334.0194205000298,334.7818228000542,334.5235243999632,334.6370393000543,,,,,,,,,,,,,,,,,003,2021_Dec_01_1420,cueing,2021.2.3,None,
endo,-90,"(-0.035, 0)",0.7056869244497335,correct,"(-0.4, 0)",a,0,32,32,0,,,,,,,,,,,a,0.24991720006801188,337.4870038999943,None,334.79784480005037,None,334.79784480005037,None,334.79784480005037,None,336.995215700008,337.74718030006625,337.4870038999943,337.5916229999857,,,,,,,,,,,,,,,,,003,2021_Dec_01_1420,cueing,2021.2.3,None,
endo,90,"(0.035, 0)",0.7311452878836484,correct,"(0.4, 0)",l,0,33,33,25,,,,,,,,,,,l,0.3291167999850586,340.480488399975,None,337.7637519000564,None,337.7637519000564,None,337.7637519000564,None,339.9821047000587,340.74081069999374,340.480488399975,340.59470300003886,,,,,,,,,,,,,,,,,003,2021_Dec_01_1420,cueing,2021.2.3,None,
endo,-90,"(-0.035, 0)",0.28340262260056537,correct,"(-0.4, 0)",a,0,34,34,3,,,,,,,,,,,a,0.2746998999500647,343.0986546999775,None,340.8313326999778,None,340.8313326999778,None,340.8313326999778,None,342.60149360005744,343.3603308000602,343.0986546999775,343.2130735999672,,,,,,,,,,,,,,,,,003,2021_Dec_01_1420,cueing,2021.2.3,None,
endo,90,"(0.035, 0)",0.7025707610448116,correct,"(0.4, 0)",l,0,35,35,28,,,,,,,,,,,l,0.2909515999490395,346.07909819995984,None,343.38867689995095,None,343.38867689995095,None,343.38867689995095,None,345.58301579998806,346.33900579996407,346.07909819995984,346.1828145000618,,,,,,,,,,,,,,,,,003,2021_Dec_01_1420,cueing,2021.2.3,None,
endo,90,"(0.035, 0)",0.2379684415492357,incorrect,"(-0.4, 0)",a,0,36,36,14,,,,,,,,,,,a,0.3615555999567732,348.6198029000079,None,346.39446380001027,None,346.39446380001027,None,346.39446380001027,None,348.11651830002666,348.86944300006144,348.6198029000079,348.7238107000012,,,,,,,,,,,,,,,,,003,2021_Dec_01_1420,cueing,2021.2.3,None,
endo,-90,"(-0.035, 0)",0.5469701378611879,incorrect,"(0.4, 0)",l,0,37,37,32,,,,,,,,,,,l,0.2926432000240311,351.5350097999908,None,349.00057090003975,None,349.00057090003975,None,349.00057090003975,None,351.03016269998625,351.7945997000206,351.5350097999908,351.64654660003725,,,,,,,,,,,,,,,,,003,2021_Dec_01_1420,cueing,2021.2.3,None,
endo,90,"(0.035, 0)",0.993881262689159,correct,"(0.4, 0)",l,0,38,38,27,,,,,,,,,,,l,0.32244740007445216,354.83119279996026,None,351.8480542000616,None,351.8480542000616,None,351.8480542000616,None,354.33337060001213,355.0941337000113,354.83119279996026,354.9335954999551,,,,,,,,,,,,,,,,,003,2021_Dec_01_1420,cueing,2021.2.3,None,
endo,-90,"(-0.035, 0)",0.9828471876315273,incorrect,"(0.4, 0)",l,0,39,39,30,,,,,,,,,,,l,0.293065799982287,358.15144689998124,None,355.17612159997225,None,355.17612159997225,None,355.17612159997225,None,357.642707800027,358.3995501999743,358.15144689998124,358.25420910003595,,,,,,,,,,,,,,,,,003,2021_Dec_01_1420,cueing,2021.2.3,None,
exo,,"(-0.4, 0)",0.37826961368195333,incorrect,"(0.4, 0)",l,,,,,0,0,0,38,,,,,,,,,,,,,,,,,,,,,None,360.4972889999626,None,358.5316518000327,365.5326209999621,358.5316518000327,365.5326209999621,358.5316518000327,365.5326209999621,360.39974959997926,360.51301900006365,360.4972889999626,360.59973290003836,,,,003,2021_Dec_01_1420,cueing,2021.2.3,None,
exo,,"(0.4, 0)",0.42042298933524336,correct,"(0.4, 0)",l,,,,,0,1,1,21,,,,,,,,,,,,,,,,,,,,,None,369.51474080001935,367.50662350002676,367.50662350002676,374.51699789997656,367.50662350002676,374.51699789997656,367.50662350002676,374.51699789997656,369.4129166000057,369.51474080001935,369.51474080001935,369.62508939998224,,,,003,2021_Dec_01_1420,cueing,2021.2.3,None,
exo,,"(-0.4, 0)",0.9427788862349625,incorrect,"(0.4, 0)",l,,,,,0,2,2,37,,,,,,,,,,,,,,,,,,,,,l,379.0495720000472,376.51558760006446,376.51558760006446,None,376.51558760006446,None,376.51558760006446,None,378.93898880004417,379.0495720000472,379.0495720000472,379.1602954999544,0.3343393000541255,,,003,2021_Dec_01_1420,cueing,2021.2.3,None,
exo,,"(-0.4, 0)",0.27238578623149223,correct,"(-0.4, 0)",a,,,,,0,3,3,9,,,,,,,,,,,,,,,,,,,,,None,381.2727685000282,None,379.4121089000255,386.41931869997643,379.4121089000255,386.41931869997643,379.4121089000255,386.41931869997643,381.1750213999767,381.2896335000405,381.2727685000282,381.38222889997996,,,,003,2021_Dec_01_1420,cueing,2021.2.3,None,
exo,,"(0.4, 0)",0.7952770235546287,correct,"(0.4, 0)",l,,,,,0,4,4,28,,,,,,,,,,,,,,,,,,,,,l,390.6565256000031,388.27903440000955,388.27903440000955,None,388.27903440000955,None,388.27903440000955,None,390.55750949995127,390.67229530005716,390.6565256000031,390.7667003000388,0.40955149999354035,,,003,2021_Dec_01_1420,cueing,2021.2.3,None,
exo,,"(-0.4, 0)",0.45451080672945254,incorrect,"(0.4, 0)",l,,,,,0,5,5,33,,,,,,,,,,,,,,,,,,,,,l,393.1291740000015,None,391.0847034000326,None,391.0847034000326,None,391.0847034000326,None,393.02992100000847,393.1454115000088,393.1291740000015,393.24154680001084,0.3355401000007987,,,003,2021_Dec_01_1420,cueing,2021.2.3,None,
exo,,"(0.4, 0)",0.8129667345671767,incorrect,"(-0.4, 0)",a,,,,,0,6,6,16,,,,,,,,,,,,,,,,,,,,,a,395.8911790000275,None,393.49013539997395,None,393.49013539997395,None,393.49013539997395,None,395.7929578999756,395.9083824000554,395.8911790000275,396.000614700024,0.34267279994674027,,,003,2021_Dec_01_1420,cueing,2021.2.3,None,
exo,,"(-0.4, 0)",0.36271911781023525,correct,"(-0.4, 0)",a,,,,,0,7,7,3,,,,,,,,,,,,,,,,,,,,,a,398.20626010000706,None,396.2489946000278,None,396.2489946000278,None,396.2489946000278,None,398.1028083000565,398.20626010000706,398.20626010000706,398.30814550002106,0.3642522000009194,,,003,2021_Dec_01_1420,cueing,2021.2.3,None,
exo,,"(0.4, 0)",0.641709836185558,incorrect,"(-0.4, 0)",a,,,,,0,8,8,12,,,,,,,,,,,,,,,,,,,,,a,400.81907119997777,None,398.5887687000213,None,398.5887687000213,None,398.5887687000213,None,400.7205330999568,400.8360696999589,400.81907119997777,400.9318416999886,0.3162693000631407,,,003,2021_Dec_01_1420,cueing,2021.2.3,None,
exo,,"(-0.4, 0)",0.5762605474981782,correct,"(-0.4, 0)",a,,,,,0,9,9,2,,,,,,,,,,,,,,,,,,,,,a,403.3210202000337,None,401.1521701000165,None,401.1521701000165,None,401.1521701000165,None,403.21219400002155,403.3210202000337,403.3210202000337,403.4325150999939,0.3201730999862775,,,003,2021_Dec_01_1420,cueing,2021.2.3,None,
exo,,"(0.4, 0)",0.4433431966992393,incorrect,"(-0.4, 0)",a,,,,,0,10,10,18,,,,,,,,,,,,,,,,,,,,,l,405.6909800999565,None,403.66662759997416,None,403.66662759997416,None,403.66662759997416,None,405.5932860999601,405.70801559998654,405.6909800999565,405.80033270001877,0.2586662999819964,,,003,2021_Dec_01_1420,cueing,2021.2.3,None,
exo,,"(-0.4, 0)",0.5921052648072145,incorrect,"(0.4, 0)",l,,,,,0,11,11,34,,,,,,,,,,,,,,,,,,,,,a,408.15944409999065,None,405.9780236999504,None,405.9780236999504,None,405.9780236999504,None,408.0609865000006,408.17466500005685,408.15944409999065,408.272673200001,0.2938553999410942,,,003,2021_Dec_01_1420,cueing,2021.2.3,None,
exo,,"(0.4, 0)",0.6134322306232748,correct,"(0.4, 0)",l,,,,,0,12,12,20,,,,,,,,,,,,,,,,,,,,,l,410.6786521000322,None,408.47534690005705,None,408.47534690005705,None,408.47534690005705,None,410.5805154000409,410.69551180000417,410.6786521000322,410.78822720004246,0.35968859994318336,,,003,2021_Dec_01_1420,cueing,2021.2.3,None,
exo,,"(-0.4, 0)",0.24050347507599634,correct,"(-0.4, 0)",a,,,,,0,13,13,4,,,,,,,,,,,,,,,,,,,,,a,412.88936879998073,None,411.06125689996406,None,411.06125689996406,None,411.06125689996406,None,412.7937273000134,412.9074639000464,412.88936879998073,413.0009319999954,0.4077867999440059,,,003,2021_Dec_01_1420,cueing,2021.2.3,None,
exo,,"(-0.4, 0)",0.1153605878572842,incorrect,"(0.4, 0)",l,,,,,0,14,14,31,,,,,,,,,,,,,,,,,,,,,None,415.02587999997195,None,413.3176509999903,420.3288268999895,413.3176509999903,420.3288268999895,413.3176509999903,420.3288268999895,414.9269380000187,415.04183720005676,415.02587999997195,415.13841250003316,,,,003,2021_Dec_01_1420,cueing,2021.2.3,None,
exo,,"(0.4, 0)",0.6213500325446535,correct,"(0.4, 0)",l,,,,,0,15,15,24,,,,,,,,,,,,,,,,,,,,,l,424.2355760000646,422.0345609000651,422.0345609000651,None,422.0345609000651,None,422.0345609000651,None,424.1378341000527,424.2530964000616,424.2355760000646,424.34581089997664,0.34097090002615005,,,003,2021_Dec_01_1420,cueing,2021.2.3,None,
exo,,"(-0.4, 0)",0.49994137550299844,correct,"(-0.4, 0)",a,,,,,0,16,16,8,,,,,,,,,,,,,,,,,,,,,l,426.68950730003417,None,424.60090419999324,None,424.60090419999324,None,424.60090419999324,None,426.59234780003317,426.7038737999974,426.68950730003417,426.79244780004956,0.3936901999404654,,,003,2021_Dec_01_1420,cueing,2021.2.3,None,
exo,,"(0.4, 0)",0.5423668062603715,incorrect,"(-0.4, 0)",a,,,,,0,17,17,11,,,,,,,,,,,,,,,,,,,,,a,429.2412440000335,None,427.10906110005453,None,427.10906110005453,None,427.10906110005453,None,429.1441603000276,429.2563110999763,429.2412440000335,429.3536347000627,0.28463469992857426,,,003,2021_Dec_01_1420,cueing,2021.2.3,None,
exo,,"(-0.4, 0)",0.04126128936196305,correct,"(-0.4, 0)",a,,,,,0,18,18,7,,,,,,,,,,,,,,,,,,,,,a,431.18655029998627,None,429.55541749997064,None,429.55541749997064,None,429.55541749997064,None,431.0892185999546,431.20127369998954,431.18655029998627,431.2962988000363,0.3291995000327006,,,003,2021_Dec_01_1420,cueing,2021.2.3,None,
exo,,"(-0.4, 0)",0.1564137278799309,correct,"(-0.4, 0)",a,,,,,0,19,19,1,,,,,,,,,,,,,,,,,,,,,a,433.2900729000103,None,431.54031149996445,None,431.54031149996445,None,431.54031149996445,None,433.1896735000191,433.2900729000103,433.2900729000103,433.3920529000461,0.3386505999369547,,,003,2021_Dec_01_1420,cueing,2021.2.3,None,
exo,,"(-0.4, 0)",0.8593638337304581,incorrect,"(0.4, 0)",l,,,,,0,20,20,39,,,,,,,,,,,,,,,,,,,,,a,436.09003560000565,None,433.6437723999843,None,433.6437723999843,None,433.6437723999843,None,435.9920449999627,436.10716460004915,436.09003560000565,436.2019935999997,0.1777013000100851,,,003,2021_Dec_01_1420,cueing,2021.2.3,None,
exo,,"(0.4, 0)",0.5147733584100419,correct,"(0.4, 0)",l,,,,,0,21,21,29,,,,,,,,,,,,,,,,,,,,,l,438.38748809997924,None,436.28364929999225,None,436.28364929999225,None,436.28364929999225,None,438.28355619998183,438.38748809997924,438.38748809997924,438.50072460004594,0.37501960003282875,,,003,2021_Dec_01_1420,cueing,2021.2.3,None,
exo,,"(0.4, 0)",0.09319469313166973,incorrect,"(-0.4, 0)",a,,,,,0,22,22,17,,,,,,,,,,,,,,,,,,,,,a,440.46470260003116,None,438.78058859996963,None,438.78058859996963,None,438.78058859996963,None,440.35681430005934,440.46470260003116,440.46470260003116,440.5748232000042,0.31600460002664477,,,003,2021_Dec_01_1420,cueing,2021.2.3,None,
exo,,"(0.4, 0)",0.7938944825899228,correct,"(0.4, 0)",l,,,,,0,23,23,22,,,,,,,,,,,,,,,,,,,,,l,443.1856893999502,None,440.80449100001715,None,440.80449100001715,None,440.80449100001715,None,443.08339589997195,443.1856893999502,443.1856893999502,443.298268500017,0.34707510005682707,,,003,2021_Dec_01_1420,cueing,2021.2.3,None,
exo,,"(-0.4, 0)",0.32297157550068845,incorrect,"(0.4, 0)",l,,,,,0,24,24,32,,,,,,,,,,,,,,,,,,,,,l,445.470869999961,None,443.5558878000593,None,443.5558878000593,None,443.5558878000593,None,445.36303720006254,445.470869999961,445.470869999961,445.57089790003374,0.3016794000286609,,,003,2021_Dec_01_1420,cueing,2021.2.3,None,
exo,,"(-0.4, 0)",0.33228981667356505,correct,"(-0.4, 0)",a,,,,,0,25,25,0,,,,,,,,,,,,,,,,,,,,,l,447.71408549998887,None,445.7915900000371,None,445.7915900000371,None,445.7915900000371,None,447.6162623000564,447.7295749000041,447.71408549998887,447.82434749999084,0.34425079997163266,,,003,2021_Dec_01_1420,cueing,2021.2.3,None,
exo,,"(-0.4, 0)",0.987689543319433,incorrect,"(0.4, 0)",l,,,,,0,26,26,36,,,,,,,,,,,,,,,,,,,,,l,450.6644969000481,None,448.08247410005424,None,448.08247410005424,None,448.08247410005424,None,450.5554081000155,450.6644969000481,450.6644969000481,450.7738373000175,0.2893104999093339,,,003,2021_Dec_01_1420,cueing,2021.2.3,None,
exo,,"(-0.4, 0)",0.004487989147306193,incorrect,"(0.4, 0)",l,,,,,0,27,27,30,,,,,,,,,,,,,,,,,,,,,l,452.5797698999522,None,450.9808499000501,None,450.9808499000501,None,450.9808499000501,None,452.4707145000575,452.5797698999522,452.5797698999522,452.6895924999844,0.2985526999691501,,,003,2021_Dec_01_1420,cueing,2021.2.3,None,
exo,,"(-0.4, 0)",0.5323305070662401,incorrect,"(0.4, 0)",l,,,,,0,28,28,35,,,,,,,,,,,,,,,,,,,,,l,455.0244726999663,None,452.9041984999785,None,452.9041984999785,None,452.9041984999785,None,454.9251449999865,455.0400515999645,455.0244726999663,455.13729640003294,0.3355787000618875,,,003,2021_Dec_01_1420,cueing,2021.2.3,None,
exo,,"(0.4, 0)",0.7386611339705057,correct,"(0.4, 0)",l,,,,,0,29,29,27,,,,,,,,,,,,,,,,,,,,,l,457.7106437999755,None,455.3799412000226,None,455.3799412000226,None,455.3799412000226,None,457.61161699995864,457.72665109997615,457.7106437999755,457.82308800006285,0.3230940999928862,,,003,2021_Dec_01_1420,cueing,2021.2.3,None,
exo,,"(0.4, 0)",0.0021202459600094814,incorrect,"(-0.4, 0)",a,,,,,0,30,30,14,,,,,,,,,,,,,,,,,,,,,a,459.6402206000639,None,458.0563513999805,None,458.0563513999805,None,458.0563513999805,None,459.5433989999583,459.65564010001253,459.6402206000639,459.74964699998964,0.3864991000154987,,,003,2021_Dec_01_1420,cueing,2021.2.3,None,
exo,,"(-0.4, 0)",0.1204646432692501,correct,"(-0.4, 0)",a,,,,,0,31,31,5,,,,,,,,,,,,,,,,,,,,,a,461.74981129996013,None,460.04681039997377,None,460.04681039997377,None,460.04681039997377,None,461.65226909995545,461.7668866000604,461.74981129996013,461.8594804999884,0.3457892000442371,,,003,2021_Dec_01_1420,cueing,2021.2.3,None,
exo,,"(-0.4, 0)",0.6190691391152903,correct,"(-0.4, 0)",a,,,,,0,32,32,6,,,,,,,,,,,,,,,,,,,,,a,464.31879000004847,None,462.1184086999856,None,462.1184086999856,None,462.1184086999856,None,464.22213380003814,464.33352730004117,464.31879000004847,464.42540800001007,0.331605099956505,,,003,2021_Dec_01_1420,cueing,2021.2.3,None,
exo,,"(0.4, 0)",0.8504486269585174,incorrect,"(-0.4, 0)",a,,,,,0,33,33,13,,,,,,,,,,,,,,,,,,,,,a,467.1135005999822,None,464.67820800002664,None,464.67820800002664,None,464.67820800002664,None,467.01603419997264,467.1291153000202,467.1135005999822,467.2232014000183,0.29307480005081743,,,003,2021_Dec_01_1420,cueing,2021.2.3,None,
exo,,"(0.4, 0)",0.28710372813133933,correct,"(0.4, 0)",l,,,,,0,34,34,23,,,,,,,,,,,,,,,,,,,,,l,469.30754059995525,None,467.4294171000365,None,467.4294171000365,None,467.4294171000365,None,469.2103649000637,469.325488600065,469.30754059995525,469.41983460006304,0.3542367999907583,,,003,2021_Dec_01_1420,cueing,2021.2.3,None,
exo,,"(0.4, 0)",0.843533813309906,incorrect,"(-0.4, 0)",a,,,,,0,35,35,15,,,,,,,,,,,,,,,,,,,,,a,472.11918320006225,None,469.68880700005684,None,469.68880700005684,None,469.68880700005684,None,472.0218979000347,472.13696669996716,472.11918320006225,472.2336628000485,0.3407281000399962,,,003,2021_Dec_01_1420,cueing,2021.2.3,None,
exo,,"(0.4, 0)",0.5428012121350249,incorrect,"(-0.4, 0)",a,,,,,0,36,36,19,,,,,,,,,,,,,,,,,,,,,a,474.6038781000534,None,472.47639700002037,None,472.47639700002037,None,472.47639700002037,None,474.50660570000764,474.61949079995975,474.6038781000534,474.710493999999,0.3416910999221727,,,003,2021_Dec_01_1420,cueing,2021.2.3,None,
exo,,"(0.4, 0)",0.2427756313014502,correct,"(0.4, 0)",l,,,,,0,37,37,25,,,,,,,,,,,,,,,,,,,,,l,476.803729700041,None,474.97347660001833,None,474.97347660001833,None,474.97347660001833,None,476.70672530005686,476.81956229999196,476.803729700041,476.9152907000389,0.4066488000098616,,,003,2021_Dec_01_1420,cueing,2021.2.3,None,
exo,,"(0.4, 0)",0.2836317994317733,incorrect,"(-0.4, 0)",a,,,,,0,38,38,10,,,,,,,,,,,,,,,,,,,,,l,479.10620959999505,None,477.23529670003336,None,477.23529670003336,None,477.23529670003336,None,479.0093882000074,479.1214896000456,479.10620959999505,479.216344299959,0.7087752000661567,,,003,2021_Dec_01_1420,cueing,2021.2.3,None,
exo,,"(0.4, 0)",0.0325124900817807,correct,"(0.4, 0)",l,,,,,0,39,39,26,,,,,,,,,,,,,,,,,,,,,l,481.45383590005804,None,479.83318369998597,None,479.83318369998597,None,479.83318369998597,None,481.35563879995607,481.46960059995763,481.45383590005804,481.56663919996936,0.3740131000522524,,,003,2021_Dec_01_1420,cueing,2021.2.3,None,
,,,,,,,,,,,,,,,,,,,,,,,,,,,,,,,,,,,,,,,,,,,,,,,,,481.9275246000616,None,,,,,,
