cue_stim_type,cue_orientation,cue_position,cue_time,cue_type,stim_position,expected_response,trials.thisRepN,trials.thisTrialN,trials.thisN,trials.thisIndex,exo_trials.thisRepN,exo_trials.thisTrialN,exo_trials.thisN,exo_trials.thisIndex,intro_text.started,intro_text.stopped,intro_resp.keys,intro_resp.rt,intro_resp.started,intro_resp.stopped,key_resp.keys,key_resp.started,key_resp.stopped,endo_right.started,endo_right.stopped,endo_left.started,endo_left.stopped,fixation_cross.started,fixation_cross.stopped,endo_cue.started,endo_cue.stopped,endo_stimulus.started,endo_stimulus.stopped,key_resp.rt,key_resp_2.keys,key_resp_2.rt,key_resp_2.started,key_resp_2.stopped,exo_right.started,exo_right.stopped,exo_left.started,exo_left.stopped,fixation.started,fixation.stopped,exo_cue.started,exo_cue.stopped,exo_stimulus.started,exo_stimulus.stopped,outro_text.started,outro_text.stopped,participant,date,expName,psychopyVersion,frameRate,
,,,,,,,,,,,,,,,96.19582999998238,None,space,105.35449950001203,96.19582999998238,None,,,,,,,,,,,,,,,,,,,,,,,,,,,,,,,006,2021_Dec_01_1442,cueing,2021.2.3,None,
endo,90,"(0.035, 0)",0.9478101236950716,correct,"(0.4, 0)",l,0,0,0,26,,,,,,,,,,,None,204.51150539994705,None,201.58484529994894,208.57835959992371,201.58484529994894,208.57835959992371,201.58484529994894,208.57835959992371,204.01399349991698,204.76338199991733,204.51150539994705,204.60859999991953,,,,,,,,,,,,,,,,,,006,2021_Dec_01_1442,cueing,2021.2.3,None,
endo,-90,"(-0.035, 0)",0.07901741602572421,incorrect,"(0.4, 0)",l,0,1,1,35,,,,,,,,,,,None,213.57916750002187,211.5194005999947,211.5194005999947,218.51739629998337,211.5194005999947,218.51739629998337,211.5194005999947,218.51739629998337,213.0817337000044,213.82987469993532,213.57916750002187,213.68265410000458,,,,,,,,,,,,,,,,,,006,2021_Dec_01_1442,cueing,2021.2.3,None,
endo,-90,"(-0.035, 0)",0.5469701378611879,incorrect,"(0.4, 0)",l,0,2,2,32,,,,,,,,,,,None,223.10435479995795,220.57925219996832,220.57925219996832,227.57722550001927,220.57925219996832,227.57722550001927,220.57925219996832,227.57722550001927,222.60145959991496,223.35642179998104,223.10435479995795,223.20253989996854,,,,,,,,,,,,,,,,,,006,2021_Dec_01_1442,cueing,2021.2.3,None,
endo,90,"(0.035, 0)",0.9127004317251198,incorrect,"(-0.4, 0)",a,0,3,3,19,,,,,,,,,,,l,233.01110000000335,230.11305739998352,230.11305739998352,None,230.11305739998352,None,230.11305739998352,None,232.51074059994426,233.2638232000172,233.01110000000335,233.1173012999352,1.161456299945712,,,,,,,,,,,,,,,,,006,2021_Dec_01_1442,cueing,2021.2.3,None,
endo,90,"(0.035, 0)",0.19704960639573776,incorrect,"(-0.4, 0)",a,0,4,4,16,,,,,,,,,,,None,236.3717940999195,None,234.20168189995456,241.20387760002632,234.20168189995456,241.20387760002632,234.20168189995456,241.20387760002632,235.87396979995538,236.62039609998465,236.3717940999195,236.47165279998444,,,,,,,,,,,,,,,,,,006,2021_Dec_01_1442,cueing,2021.2.3,None,
endo,90,"(0.035, 0)",0.7025707610448116,correct,"(0.4, 0)",l,0,5,5,28,,,,,,,,,,,None,246.06162329996005,243.37925040000118,243.37925040000118,250.38376989995595,243.37925040000118,250.38376989995595,243.37925040000118,250.38376989995595,245.56457489996683,246.3142116999952,246.06162329996005,246.15815649996512,,,,,,,,,,,,,,,,,,006,2021_Dec_01_1442,cueing,2021.2.3,None,
endo,-90,"(-0.035, 0)",0.2976392595268207,incorrect,"(0.4, 0)",l,0,6,6,31,,,,,,,,,,,a,255.33763750002254,253.064140799921,253.064140799921,None,253.064140799921,None,253.064140799921,None,254.8372732999269,255.58277550002094,255.33763750002254,255.4373444999801,3.4761366000166163,,,,,,,,,,,,,,,,,006,2021_Dec_01_1442,cueing,2021.2.3,None,
endo,90,"(0.035, 0)",0.8970076051360286,correct,"(0.4, 0)",l,0,7,7,20,,,,,,,,,,,l,261.7165629999945,None,258.8385712999152,None,258.8385712999152,None,258.8385712999152,None,261.21982390002813,261.96996399993077,261.7165629999945,261.81651969999075,0.42198490002192557,,,,,,,,,,,,,,,,,006,2021_Dec_01_1442,cueing,2021.2.3,None,
endo,90,"(0.035, 0)",0.2379684415492357,incorrect,"(-0.4, 0)",a,0,8,8,14,,,,,,,,,,,None,264.3828814999433,None,262.1597605999559,269.1580720000202,262.1597605999559,269.1580720000202,262.1597605999559,269.1580720000202,263.8793490999378,264.63156739994884,264.3828814999433,264.48635249992367,,,,,,,,,,,,,,,,,,006,2021_Dec_01_1442,cueing,2021.2.3,None,
endo,-90,"(-0.035, 0)",0.7056869244497335,correct,"(-0.4, 0)",a,0,9,9,0,,,,,,,,,,,a,274.0743475999916,271.38445090001915,271.38445090001915,None,271.38445090001915,None,271.38445090001915,None,273.56423249992076,274.32269830000587,274.0743475999916,274.1722161999205,0.337514300015755,,,,,,,,,,,,,,,,,006,2021_Dec_01_1442,cueing,2021.2.3,None,
endo,-90,"(-0.035, 0)",0.7387684035985251,correct,"(-0.4, 0)",a,0,10,10,1,,,,,,,,,,,a,277.16440699994564,None,274.4428874999285,None,274.4428874999285,None,274.4428874999285,None,276.65488970000297,277.41052559996024,277.16440699994564,277.2636230000062,0.3501375999767333,,,,,,,,,,,,,,,,,006,2021_Dec_01_1442,cueing,2021.2.3,None,
endo,-90,"(-0.035, 0)",0.29956714904652626,incorrect,"(0.4, 0)",l,0,11,11,36,,,,,,,,,,,None,279.8157257999992,None,277.5350227999734,284.5288564999355,277.5350227999734,284.5288564999355,277.5350227999734,284.5288564999355,279.31560640002135,280.0744363999693,279.8157257999992,279.9153178000124,,,,,,,,,,,,,,,,,,006,2021_Dec_01_1442,cueing,2021.2.3,None,
endo,90,"(0.035, 0)",0.3779252118559099,incorrect,"(-0.4, 0)",a,0,12,12,17,,,,,,,,,,,None,289.1767704000231,286.8212989999447,286.8212989999447,293.81851779995486,286.8212989999447,293.81851779995486,286.8212989999447,293.81851779995486,288.67298449994996,289.43124850001186,289.1767704000231,289.28026889998,,,,,,,,,,,,,,,,,,006,2021_Dec_01_1442,cueing,2021.2.3,None,
endo,-90,"(-0.035, 0)",0.5922941594138551,correct,"(-0.4, 0)",a,0,13,13,4,,,,,,,,,,,a,298.75152499997057,296.17804309993517,296.17804309993517,None,296.17804309993517,None,296.17804309993517,None,298.24835589993745,298.9997029999504,298.75152499997057,298.8519293999998,0.3533817999996245,,,,,,,,,,,,,,,,,006,2021_Dec_01_1442,cueing,2021.2.3,None,
endo,90,"(0.035, 0)",0.6591262849764731,correct,"(0.4, 0)",l,0,14,14,22,,,,,,,,,,,l,301.7769139999291,None,299.1335193000268,None,299.1335193000268,None,299.1335193000268,None,301.26672389998566,302.0185889999848,301.7769139999291,301.87444459996186,0.2884722000453621,,,,,,,,,,,,,,,,,006,2021_Dec_01_1442,cueing,2021.2.3,None,
endo,-90,"(-0.035, 0)",0.7866571383694275,correct,"(-0.4, 0)",a,0,15,15,2,,,,,,,,,,,a,304.8573605000274,None,302.08585559995845,None,302.08585559995845,None,302.08585559995845,None,304.35163769999053,305.1063380999258,304.8573605000274,304.9594844999956,0.3038488000165671,,,,,,,,,,,,,,,,,006,2021_Dec_01_1442,cueing,2021.2.3,None,
endo,90,"(0.035, 0)",0.9706793863527535,incorrect,"(-0.4, 0)",a,0,16,16,10,,,,,,,,,,,l,308.13656389992684,None,305.1877356999321,None,305.1877356999321,None,305.1877356999321,None,307.6363644999219,308.3875097000273,308.13656389992684,308.2324424999533,1.2452727999771014,,,,,,,,,,,,,,,,,006,2021_Dec_01_1442,cueing,2021.2.3,None,
endo,90,"(0.035, 0)",0.39625884761736807,correct,"(0.4, 0)",l,0,17,17,23,,,,,,,,,,,l,311.781464700005,None,309.40689460001886,None,309.40689460001886,None,309.40689460001886,None,311.2859347999329,312.03739950002637,311.781464700005,311.87920680001844,0.36478589999023825,,,,,,,,,,,,,,,,,006,2021_Dec_01_1442,cueing,2021.2.3,None,
endo,90,"(0.035, 0)",0.4499901342346745,incorrect,"(-0.4, 0)",a,0,18,18,12,,,,,,,,,,,a,314.5890335999429,None,312.16437389992643,None,312.16437389992643,None,312.16437389992643,None,314.0905688999919,314.8370502999751,314.5890335999429,314.6904471999733,0.45983279997017235,,,,,,,,,,,,,,,,,006,2021_Dec_01_1442,cueing,2021.2.3,None,
endo,-90,"(-0.035, 0)",0.23391027043498136,correct,"(-0.4, 0)",a,0,19,19,8,,,,,,,,,,,a,317.2760495999828,None,315.06701130000874,None,315.06701130000874,None,315.06701130000874,None,316.775443600025,317.5233298999956,317.2760495999828,317.3776963999262,0.2988158999942243,,,,,,,,,,,,,,,,,006,2021_Dec_01_1442,cueing,2021.2.3,None,
endo,-90,"(-0.035, 0)",0.28340262260056537,correct,"(-0.4, 0)",a,0,20,20,3,,,,,,,,,,,a,319.8612400999991,None,317.60089769994374,None,317.60089769994374,None,317.60089769994374,None,319.3712272000266,320.12715139996726,319.8612400999991,319.96578979992773,0.36627819994464517,,,,,,,,,,,,,,,,,006,2021_Dec_01_1442,cueing,2021.2.3,None,
endo,90,"(0.035, 0)",0.993881262689159,correct,"(0.4, 0)",l,0,21,21,27,,,,,,,,,,,None,323.2130189000163,None,320.2428773000138,327.23666669998784,320.2428773000138,327.23666669998784,320.2428773000138,327.23666669998784,322.7146396000171,323.4703662999673,323.2130189000163,323.31499729992356,,,,,,,,,,,,,,,,,,006,2021_Dec_01_1442,cueing,2021.2.3,None,
endo,-90,"(-0.035, 0)",0.9206860483593494,incorrect,"(0.4, 0)",l,0,22,22,38,,,,,,,,,,,None,333.1148550999351,330.2147559999721,330.2147559999721,337.2116672999691,330.2147559999721,337.2116672999691,330.2147559999721,337.2116672999691,332.617756200023,333.369609599933,333.1148550999351,333.21196240000427,,,,,,,,,,,,,,,,,,006,2021_Dec_01_1442,cueing,2021.2.3,None,
endo,-90,"(-0.035, 0)",0.7043933979083875,incorrect,"(0.4, 0)",l,0,23,23,39,,,,,,,,,,,None,342.8063173999544,340.1264333999716,340.1264333999716,347.1273677999852,340.1264333999716,347.1273677999852,340.1264333999716,347.1273677999852,342.3086792000104,343.05376229994,342.8063173999544,342.9082175999647,,,,,,,,,,,,,,,,,,006,2021_Dec_01_1442,cueing,2021.2.3,None,
endo,-90,"(-0.035, 0)",0.7669666969931148,correct,"(-0.4, 0)",a,0,24,24,9,,,,,,,,,,,a,352.55166769993957,349.8111578000244,349.8111578000244,None,349.8111578000244,None,349.8111578000244,None,352.0534950000001,352.8047043000115,352.55166769993957,352.6546528999461,0.3023665000218898,,,,,,,,,,,,,,,,,006,2021_Dec_01_1442,cueing,2021.2.3,None,
endo,90,"(0.035, 0)",0.38360493617076563,incorrect,"(-0.4, 0)",a,0,25,25,13,,,,,,,,,,,None,355.2301331999479,None,352.87247960001696,359.8681296999566,352.87247960001696,359.8681296999566,352.87247960001696,359.8681296999566,354.73409569996875,355.4849087999901,355.2301331999479,355.3290743000107,,,,,,,,,,,,,,,,,,006,2021_Dec_01_1442,cueing,2021.2.3,None,
endo,-90,"(-0.035, 0)",0.9828471876315273,incorrect,"(0.4, 0)",l,0,26,26,30,,,,,,,,,,,None,365.19518429995514,362.2317118999781,362.2317118999781,369.2356204999378,362.2317118999781,369.2356204999378,362.2317118999781,369.2356204999378,364.6926925999578,365.44434159994125,365.19518429995514,365.30149260000326,,,,,,,,,,,,,,,,,,006,2021_Dec_01_1442,cueing,2021.2.3,None,
endo,-90,"(-0.035, 0)",0.42702221127828477,correct,"(-0.4, 0)",a,0,27,27,6,,,,,,,,,,,None,374.6022767999675,372.1943000999745,372.1943000999745,379.18947270000353,372.1943000999745,379.18947270000353,372.1943000999745,379.18947270000353,374.09557769994717,374.8413313999772,374.6022767999675,374.7053759000264,,,,,,,,,,,,,,,,,,006,2021_Dec_01_1442,cueing,2021.2.3,None,
endo,90,"(0.035, 0)",0.6144709735635417,correct,"(0.4, 0)",l,0,28,28,29,,,,,,,,,,,l,384.19372149999253,381.6003268000204,381.6003268000204,None,381.6003268000204,None,381.6003268000204,None,383.69646439992357,384.45006179995835,384.19372149999253,384.2918814999284,0.5056971999583766,,,,,,,,,,,,,,,,,006,2021_Dec_01_1442,cueing,2021.2.3,None,
endo,-90,"(-0.035, 0)",0.02396326924047798,correct,"(-0.4, 0)",a,0,29,29,7,,,,,,,,,,,a,386.7201578000095,None,384.71540139999706,None,384.71540139999706,None,384.71540139999706,None,386.21675020002294,386.9678410999477,386.7201578000095,386.82359479996376,0.4306322999764234,,,,,,,,,,,,,,,,,006,2021_Dec_01_1442,cueing,2021.2.3,None,
endo,90,"(0.035, 0)",0.3939797644424977,incorrect,"(-0.4, 0)",a,0,30,30,15,,,,,,,,,,,None,389.54412199999206,None,387.17025009996723,394.16756730002817,387.17025009996723,394.16756730002817,387.17025009996723,394.16756730002817,389.0478746999288,389.8048216999741,389.54412199999206,389.65002019994427,,,,,,,,,,,,,,,,,,006,2021_Dec_01_1442,cueing,2021.2.3,None,
endo,90,"(0.035, 0)",0.6423195276025604,correct,"(0.4, 0)",l,0,31,31,21,,,,,,,,,,,l,399.16884860000573,396.5471300999634,396.5471300999634,None,396.5471300999634,None,396.5471300999634,None,398.6725113999564,399.4292830999475,399.16884860000573,399.27096649992745,0.36759050004184246,,,,,,,,,,,,,,,,,006,2021_Dec_01_1442,cueing,2021.2.3,None,
endo,90,"(0.035, 0)",0.9010739803891251,incorrect,"(-0.4, 0)",a,0,32,32,11,,,,,,,,,,,a,402.4358174999943,None,399.55659239995293,None,399.55659239995293,None,399.55659239995293,None,401.93729829997756,402.68561499996576,402.4358174999943,402.5378324999474,0.9642624000553042,,,,,,,,,,,,,,,,,006,2021_Dec_01_1442,cueing,2021.2.3,None,
endo,-90,"(-0.035, 0)",0.37307711698805524,incorrect,"(0.4, 0)",l,0,33,33,37,,,,,,,,,,,l,405.77385599992704,None,403.4241788999643,None,403.4241788999643,None,403.4241788999643,None,405.27187930000946,406.0285840999568,405.77385599992704,405.8775017999578,0.5205434000818059,,,,,,,,,,,,,,,,,006,2021_Dec_01_1442,cueing,2021.2.3,None,
endo,-90,"(-0.035, 0)",0.04779793183180647,incorrect,"(0.4, 0)",l,0,34,34,33,,,,,,,,,,,None,408.34348829998635,None,406.3145102999406,413.3190163000254,406.3145102999406,413.3190163000254,406.3145102999406,413.3190163000254,407.84961279993877,408.5954633000074,408.34348829998635,408.448551199981,,,,,,,,,,,,,,,,,,006,2021_Dec_01_1442,cueing,2021.2.3,None,
endo,90,"(0.035, 0)",0.18359352140224616,incorrect,"(-0.4, 0)",a,0,35,35,18,,,,,,,,,,,a,417.50665769993793,415.34925989992917,415.34925989992917,None,415.34925989992917,None,415.34925989992917,None,417.00507610000204,417.76166820002254,417.50665769993793,417.61244329996407,0.43847990001086146,,,,,,,,,,,,,,,,,006,2021_Dec_01_1442,cueing,2021.2.3,None,
endo,-90,"(-0.035, 0)",0.5645407691009291,correct,"(-0.4, 0)",a,0,36,36,5,,,,,,,,,,,a,420.5195888999151,None,417.9677385999821,None,417.9677385999821,None,417.9677385999821,None,420.01066739996895,420.75581709994003,420.5195888999151,420.6195738000097,0.3662918000482023,,,,,,,,,,,,,,,,,006,2021_Dec_01_1442,cueing,2021.2.3,None,
endo,90,"(0.035, 0)",0.4283499593741631,correct,"(0.4, 0)",l,0,37,37,24,,,,,,,,,,,l,423.32096439995803,None,420.9136231999146,None,420.9136231999146,None,420.9136231999146,None,422.8182046000147,423.5674562000204,423.32096439995803,423.4220384999644,0.3093459999654442,,,,,,,,,,,,,,,,,006,2021_Dec_01_1442,cueing,2021.2.3,None,
endo,90,"(0.035, 0)",0.7311452878836484,correct,"(0.4, 0)",l,0,38,38,25,,,,,,,,,,,l,426.35532009997405,None,423.645734300022,None,423.645734300022,None,423.645734300022,None,425.85376620001625,426.6004152999958,426.35532009997405,426.45274480001535,0.4088983000256121,,,,,,,,,,,,,,,,,006,2021_Dec_01_1442,cueing,2021.2.3,None,
endo,-90,"(-0.035, 0)",0.7701712865549922,incorrect,"(0.4, 0)",l,0,39,39,34,,,,,,,,,,,None,429.53143560001627,None,426.77919659996405,433.77886860002764,426.77919659996405,433.77886860002764,426.77919659996405,433.77886860002764,429.0344824999338,429.7804202999687,429.53143560001627,429.6339127999963,,,,,,,,,,,,,,,,,,006,2021_Dec_01_1442,cueing,2021.2.3,None,
exo,,"(-0.4, 0)",0.24050347507599634,correct,"(-0.4, 0)",a,,,,,0,0,0,4,,,,,,,,,,,,,,,,,,,,,a,0.5344123999821022,438.4338052999228,None,436.6104804999195,None,436.6104804999195,None,436.6104804999195,None,438.3246442999225,438.4216184000252,438.4338052999228,438.53043719998095,,,006,2021_Dec_01_1442,cueing,2021.2.3,None,
exo,,"(0.4, 0)",0.2427756313014502,correct,"(0.4, 0)",l,,,,,0,1,1,25,,,,,,,,,,,,,,,,,,,,,None,,440.8100621999474,None,438.986412200029,445.9807391000213,438.986412200029,445.9807391000213,438.986412200029,445.9807391000213,440.70729109994136,440.8100621999474,440.8100621999474,440.9088873999426,,,006,2021_Dec_01_1442,cueing,2021.2.3,None,
exo,,"(-0.4, 0)",0.987689543319433,incorrect,"(0.4, 0)",l,,,,,0,2,2,36,,,,,,,,,,,,,,,,,,,,,None,,450.3827169999713,447.81487599993125,447.81487599993125,454.8149523999309,447.81487599993125,454.8149523999309,447.81487599993125,454.8149523999309,450.2821562999161,450.3827169999713,450.3827169999713,450.4840378999943,,,006,2021_Dec_01_1442,cueing,2021.2.3,None,
exo,,"(0.4, 0)",0.8129667345671767,incorrect,"(-0.4, 0)",a,,,,,0,3,3,16,,,,,,,,,,,,,,,,,,,,,a,2.75984429998789,459.78457349992823,457.3875847000163,457.3875847000163,None,457.3875847000163,None,457.3875847000163,None,459.6828096000245,459.78457349992823,459.78457349992823,459.8816652999958,,,006,2021_Dec_01_1442,cueing,2021.2.3,None,
exo,,"(-0.4, 0)",0.8593638337304581,incorrect,"(0.4, 0)",l,,,,,0,4,4,39,,,,,,,,,,,,,,,,,,,,,None,,465.00542199995834,None,462.5613386000041,469.5611693999963,462.5613386000041,469.5611693999963,462.5613386000041,469.5611693999963,464.90055559994653,465.00542199995834,465.00542199995834,465.1025932999328,,,006,2021_Dec_01_1442,cueing,2021.2.3,None,
exo,,"(-0.4, 0)",0.9427788862349625,incorrect,"(0.4, 0)",l,,,,,0,5,5,37,,,,,,,,,,,,,,,,,,,,,None,,474.5256141999271,472.00517030002084,472.00517030002084,479.0088421999244,472.00517030002084,479.0088421999244,472.00517030002084,479.0088421999244,474.4273589999648,474.5256141999271,474.5256141999271,474.6234124000184,,,006,2021_Dec_01_1442,cueing,2021.2.3,None,
exo,,"(-0.4, 0)",0.27238578623149223,correct,"(-0.4, 0)",a,,,,,0,6,6,9,,,,,,,,,,,,,,,,,,,,,l,1.7603633999824524,483.38654959993437,481.5336309999693,481.5336309999693,None,481.5336309999693,None,481.5336309999693,None,483.2874216999626,483.38654959993437,483.38654959993437,483.4822031999938,,,006,2021_Dec_01_1442,cueing,2021.2.3,None,
exo,,"(-0.4, 0)",0.5921052648072145,incorrect,"(0.4, 0)",l,,,,,0,7,7,34,,,,,,,,,,,,,,,,,,,,,l,0.595579499960877,487.3436666999478,None,485.1679901999887,None,485.1679901999887,None,485.1679901999887,None,487.2408397999825,487.3436666999478,487.3436666999478,487.4454767999705,,,006,2021_Dec_01_1442,cueing,2021.2.3,None,
exo,,"(0.4, 0)",0.6134322306232748,correct,"(0.4, 0)",l,,,,,0,8,8,20,,,,,,,,,,,,,,,,,,,,,None,,490.1577145999763,None,487.9662116999971,494.9660148000112,487.9662116999971,494.9660148000112,487.9662116999971,494.9660148000112,490.0579917000141,490.1577145999763,490.1577145999763,490.2544094999321,,,006,2021_Dec_01_1442,cueing,2021.2.3,None,
exo,,"(0.4, 0)",0.641709836185558,incorrect,"(-0.4, 0)",a,,,,,0,9,9,12,,,,,,,,,,,,,,,,,,,,,None,,499.37297089991625,497.1552315999288,497.1552315999288,504.15976029995363,497.1552315999288,504.15976029995363,497.1552315999288,504.15976029995363,499.27564999996684,499.37297089991625,499.37297089991625,499.4708391999593,,,006,2021_Dec_01_1442,cueing,2021.2.3,None,
exo,,"(0.4, 0)",0.0325124900817807,correct,"(0.4, 0)",l,,,,,0,10,10,26,,,,,,,,,,,,,,,,,,,,,None,,507.9917151000118,506.3792835000204,506.3792835000204,513.3776470000157,506.3792835000204,513.3776470000157,506.3792835000204,513.3776470000157,507.8935465000104,507.9917151000118,507.9917151000118,508.0880200000247,,,006,2021_Dec_01_1442,cueing,2021.2.3,None,
exo,,"(0.4, 0)",0.7952770235546287,correct,"(0.4, 0)",l,,,,,0,11,11,28,,,,,,,,,,,,,,,,,,,,,None,,517.3776201999281,515.002226099954,515.002226099954,521.9967028999235,515.002226099954,521.9967028999235,515.002226099954,521.9967028999235,517.2693152999273,517.3653879999183,517.3776201999281,517.4783832000103,,,006,2021_Dec_01_1442,cueing,2021.2.3,None,
exo,,"(0.4, 0)",0.7938944825899228,correct,"(0.4, 0)",l,,,,,0,12,12,22,,,,,,,,,,,,,,,,,,,,,None,,526.7598815999227,524.3895524999825,524.3895524999825,531.3956426000223,524.3895524999825,531.3956426000223,524.3895524999825,531.3956426000223,526.6625322999898,526.7598815999227,526.7598815999227,526.8564044999657,,,006,2021_Dec_01_1442,cueing,2021.2.3,None,
exo,,"(-0.4, 0)",0.32297157550068845,incorrect,"(0.4, 0)",l,,,,,0,13,13,32,,,,,,,,,,,,,,,,,,,,,l,1.1025886998977512,535.6700562000042,533.7616362000117,533.7616362000117,None,533.7616362000117,None,533.7616362000117,None,535.5656965000089,535.6700562000042,535.6700562000042,535.7663784999168,,,006,2021_Dec_01_1442,cueing,2021.2.3,None,
exo,,"(-0.4, 0)",0.004487989147306193,incorrect,"(0.4, 0)",l,,,,,0,14,14,30,,,,,,,,,,,,,,,,,,,,,l,1.4148278000066057,538.3831805000082,None,536.7960692999186,None,536.7960692999186,None,536.7960692999186,None,538.2860670000082,538.3831805000082,538.3831805000082,538.489161000005,,,006,2021_Dec_01_1442,cueing,2021.2.3,None,
exo,,"(0.4, 0)",0.843533813309906,incorrect,"(-0.4, 0)",a,,,,,0,15,15,15,,,,,,,,,,,,,,,,,,,,,a,0.6748704999918118,542.2374726999551,None,539.8158708999399,None,539.8158708999399,None,539.8158708999399,None,542.141298100003,542.2374726999551,542.2374726999551,542.3463399999309,,,006,2021_Dec_01_1442,cueing,2021.2.3,None,
exo,,"(0.4, 0)",0.5147733584100419,correct,"(0.4, 0)",l,,,,,0,16,16,29,,,,,,,,,,,,,,,,,,,,,l,1.9010444999439642,545.0339699999895,None,542.9411984999897,None,542.9411984999897,None,542.9411984999897,None,544.9388269999763,545.0504734999267,545.0339699999895,545.1380140000256,,,006,2021_Dec_01_1442,cueing,2021.2.3,None,
exo,,"(-0.4, 0)",0.45451080672945254,incorrect,"(0.4, 0)",l,,,,,0,17,17,33,,,,,,,,,,,,,,,,,,,,,l,1.176303599961102,548.9830696999561,None,546.9529162999243,None,546.9529162999243,None,546.9529162999243,None,548.8865421999944,548.9830696999561,548.9830696999561,549.0809957999736,,,006,2021_Dec_01_1442,cueing,2021.2.3,None,
exo,,"(0.4, 0)",0.28710372813133933,correct,"(0.4, 0)",l,,,,,0,18,18,23,,,,,,,,,,,,,,,,,,,,,l,1.4963939000153914,552.0436578999506,None,550.1766860999633,None,550.1766860999633,None,550.1766860999633,None,551.9470382999862,552.0436578999506,552.0436578999506,552.1410408000229,,,006,2021_Dec_01_1442,cueing,2021.2.3,None,
exo,,"(-0.4, 0)",0.04126128936196305,correct,"(-0.4, 0)",a,,,,,0,19,19,7,,,,,,,,,,,,,,,,,,,,,a,0.7738359000068158,555.177949899924,None,553.5585194999585,None,553.5585194999585,None,553.5585194999585,None,555.080406999914,555.177949899924,555.177949899924,555.2797515999991,,,006,2021_Dec_01_1442,cueing,2021.2.3,None,
exo,,"(0.4, 0)",0.8504486269585174,incorrect,"(-0.4, 0)",a,,,,,0,20,20,13,,,,,,,,,,,,,,,,,,,,,a,0.8095283000729978,558.4076142000267,None,555.9767194999149,None,555.9767194999149,None,555.9767194999149,None,558.3101459000027,558.4076142000267,558.4076142000267,558.5073217999889,,,006,2021_Dec_01_1442,cueing,2021.2.3,None,
exo,,"(0.4, 0)",0.42042298933524336,correct,"(0.4, 0)",l,,,,,0,21,21,21,,,,,,,,,,,,,,,,,,,,,l,1.8544721000362188,561.2442254999187,None,559.2431511000032,None,559.2431511000032,None,559.2431511000032,None,561.146854099934,561.2442254999187,561.2442254999187,561.3405900999205,,,006,2021_Dec_01_1442,cueing,2021.2.3,None,
exo,,"(0.4, 0)",0.4433431966992393,incorrect,"(-0.4, 0)",a,,,,,0,22,22,18,,,,,,,,,,,,,,,,,,,,,a,0.6964552000863478,565.148503299919,None,563.1191081999568,None,563.1191081999568,None,563.1191081999568,None,565.0437819999643,565.148503299919,565.148503299919,565.2455307999626,,,006,2021_Dec_01_1442,cueing,2021.2.3,None,
exo,,"(0.4, 0)",0.0021202459600094814,incorrect,"(-0.4, 0)",a,,,,,0,23,23,14,,,,,,,,,,,,,,,,,,,,,a,0.5126926000230014,567.4496277000289,None,565.868487300002,None,565.868487300002,None,565.868487300002,None,567.3524366000202,567.4496277000289,567.4496277000289,567.5584193000104,,,006,2021_Dec_01_1442,cueing,2021.2.3,None,
exo,,"(-0.4, 0)",0.36271911781023525,correct,"(-0.4, 0)",a,,,,,0,24,24,3,,,,,,,,,,,,,,,,,,,,,a,0.554847399936989,569.924301299965,None,567.9841040999163,None,567.9841040999163,None,567.9841040999163,None,569.8256319999928,569.924301299965,569.924301299965,570.0263587000081,,,006,2021_Dec_01_1442,cueing,2021.2.3,None,
exo,,"(-0.4, 0)",0.5323305070662401,incorrect,"(0.4, 0)",l,,,,,0,25,25,35,,,,,,,,,,,,,,,,,,,,,l,0.7575369999976829,572.6134362999583,None,570.4975733999163,None,570.4975733999163,None,570.4975733999163,None,572.511285000015,572.6134362999583,572.6134362999583,572.7131705000065,,,006,2021_Dec_01_1442,cueing,2021.2.3,None,
exo,,"(0.4, 0)",0.09319469313166973,incorrect,"(-0.4, 0)",a,,,,,0,26,26,17,,,,,,,,,,,,,,,,,,,,,a,0.621571300085634,575.0750027999748,None,573.400299699977,None,573.400299699977,None,573.400299699977,None,574.970665199915,575.0750027999748,575.0750027999748,575.1725104999496,,,006,2021_Dec_01_1442,cueing,2021.2.3,None,
exo,,"(-0.4, 0)",0.49994137550299844,correct,"(-0.4, 0)",a,,,,,0,27,27,8,,,,,,,,,,,,,,,,,,,,,a,0.49130290001630783,577.8008219000185,None,575.7157119999174,None,575.7157119999174,None,575.7157119999174,None,577.6924195999745,577.7883718999801,577.8008219000185,577.8979881999549,,,006,2021_Dec_01_1442,cueing,2021.2.3,None,
exo,,"(-0.4, 0)",0.1204646432692501,correct,"(-0.4, 0)",a,,,,,0,28,28,5,,,,,,,,,,,,,,,,,,,,,a,0.4382571999449283,580.013577500009,None,578.3155567999929,None,578.3155567999929,None,578.3155567999929,None,579.9156395000173,580.013577500009,580.013577500009,580.1114778999472,,,006,2021_Dec_01_1442,cueing,2021.2.3,None,
exo,,"(0.4, 0)",0.7386611339705057,correct,"(0.4, 0)",l,,,,,0,29,29,27,,,,,,,,,,,,,,,,,,,,,l,0.7259818000020459,582.7892354999203,None,580.4761446999619,None,580.4761446999619,None,580.4761446999619,None,582.691790199955,582.7892354999203,582.7892354999203,582.8884140999289,,,006,2021_Dec_01_1442,cueing,2021.2.3,None,
exo,,"(-0.4, 0)",0.37826961368195333,incorrect,"(0.4, 0)",l,,,,,0,30,30,38,,,,,,,,,,,,,,,,,,,,,l,0.942932799924165,585.4979191999882,None,583.5366959000239,None,583.5366959000239,None,583.5366959000239,None,585.388489899924,585.4857474999735,585.4979191999882,585.597288699937,,,006,2021_Dec_01_1442,cueing,2021.2.3,None,
exo,,"(-0.4, 0)",0.1153605878572842,incorrect,"(0.4, 0)",l,,,,,0,31,31,31,,,,,,,,,,,,,,,,,,,,,l,0.8659707999322563,588.1578407000052,None,586.4630489000119,None,586.4630489000119,None,586.4630489000119,None,588.0609763999237,588.1578407000052,588.1578407000052,588.2554508999456,,,006,2021_Dec_01_1442,cueing,2021.2.3,None,
exo,,"(0.4, 0)",0.6213500325446535,correct,"(0.4, 0)",l,,,,,0,32,32,24,,,,,,,,,,,,,,,,,,,,,a,0.9794198999879882,591.2396636999911,None,589.0428245000076,None,589.0428245000076,None,589.0428245000076,None,591.1419284000294,591.2396636999911,591.2396636999911,591.3394832999911,,,006,2021_Dec_01_1442,cueing,2021.2.3,None,
exo,,"(-0.4, 0)",0.5762605474981782,correct,"(-0.4, 0)",a,,,,,0,33,33,2,,,,,,,,,,,,,,,,,,,,,a,0.6711179000558332,594.395379499998,None,592.2364077999955,None,592.2364077999955,None,592.2364077999955,None,594.2976263000164,594.395379499998,594.395379499998,594.4944221000187,,,006,2021_Dec_01_1442,cueing,2021.2.3,None,
exo,,"(-0.4, 0)",0.6190691391152903,correct,"(-0.4, 0)",a,,,,,0,34,34,6,,,,,,,,,,,,,,,,,,,,,a,0.5973466000286862,597.2937760999193,None,595.0914077999769,None,595.0914077999769,None,595.0914077999769,None,597.1892298000166,597.2937760999193,597.2937760999193,597.3943807999603,,,006,2021_Dec_01_1442,cueing,2021.2.3,None,
exo,,"(0.4, 0)",0.2836317994317733,incorrect,"(-0.4, 0)",a,,,,,0,35,35,10,,,,,,,,,,,,,,,,,,,,,a,0.4155661999247968,599.7820476000197,None,597.9156909999438,None,597.9156909999438,None,597.9156909999438,None,599.6728478999576,599.7697844000068,599.7820476000197,599.8795360999648,,,006,2021_Dec_01_1442,cueing,2021.2.3,None,
exo,,"(-0.4, 0)",0.33228981667356505,correct,"(-0.4, 0)",a,,,,,0,36,36,0,,,,,,,,,,,,,,,,,,,,,a,0.4837505000177771,602.1333955000155,None,600.2197471000254,None,600.2197471000254,None,600.2197471000254,None,602.0366954000201,602.1333955000155,602.1333955000155,602.2314182999544,,,006,2021_Dec_01_1442,cueing,2021.2.3,None,
exo,,"(0.4, 0)",0.5423668062603715,incorrect,"(-0.4, 0)",a,,,,,0,37,37,11,,,,,,,,,,,,,,,,,,,,,None,,604.7521795999492,None,602.6359211999224,609.6311701999512,602.6359211999224,609.6311701999512,602.6359211999224,609.6311701999512,604.6625660000136,604.7694327000063,604.7521795999492,604.8491274999687,,,006,2021_Dec_01_1442,cueing,2021.2.3,None,
exo,,"(-0.4, 0)",0.1564137278799309,correct,"(-0.4, 0)",a,,,,,0,38,38,1,,,,,,,,,,,,,,,,,,,,,a,0.5855293999193236,613.4852469000034,611.7550391999539,611.7550391999539,None,611.7550391999539,None,611.7550391999539,None,613.3881311999867,613.4852469000034,613.4852469000034,613.58430639992,,,006,2021_Dec_01_1442,cueing,2021.2.3,None,
exo,,"(0.4, 0)",0.5428012121350249,incorrect,"(-0.4, 0)",a,,,,,0,39,39,19,,,,,,,,,,,,,,,,,,,,,a,0.4678023000014946,616.2194245000137,None,614.0913009999786,None,614.0913009999786,None,614.0913009999786,None,616.1150421999628,616.2194245000137,616.2194245000137,616.3206161999842,,,006,2021_Dec_01_1442,cueing,2021.2.3,None,
,,,,,,,,,,,,,,,,,,,,,,,,,,,,,,,,,,,,,,,,,,,,,,,,,616.8008808000013,None,,,,,,
